,ACC_x_mean,ACC_y_mean,ACC_z_mean,net_acc_mean,net_acc_std,EDA_mean,EDA_std,EDA_slope,RESP_rate,RESP_regularity,HR,IBI,RMSSD,SDNN,pNN50,lf/hf,label,subject,hr_diff,hr_center,hr_slope,hr_zscore,sdnn_diff,sdnn_slope,sdnn_zscore,acc_ratio,net_acc_mean_slope,net_acc_mean_diff,acc_vector_magnitude_mean,acc_vector_slope,hr_netacc_interaction,hr_sdnn_ratio,acc_hr_slope_diff,sdnn_netacc_ratio,eda_hr_interaction,eda_resp_ratio,hr_resp_interaction,hrv_composite,hrv_stress_index,arousal_index,focus_label
0,49.574666666666666,19.2966,-15.759333333333334,63.25392949310297,1.7710459286982205,0.2231063958333333,0.07492913141242741,-0.0002075970439597534,22.122198812488026,3.6067548025717797,83.66256624320482,766.8238491048594,213.73310680732837,177.42840746309557,59.23076923076925,2.716673586943485,1,2,-6.919882472335047,-7.435306648352864,-6.919882472335072,-0.9260282318334745,-5.314425834469233,-5.314425834469249,-0.542531782521274,0.027998986669932186,-0.14370677150396824,-0.1437067715039504,55.48299679885922,-2.7160578777704965,5291.986066359735,0.4715285842210906,8.690928401033293,2.805017902918173,18.665653620688925,0.020774667398792825,1850.7999235951265,150.13076116706438,0.8301400289054891,412.9253003619174,1
1,33.51506666666667,-0.4758,30.023666666666667,63.323776275325415,4.217205816556901,0.11027341000000002,0.009324573605009151,-1.0347522338557328e-05,21.002000190494336,3.463864024238872,79.63345617943155,801.0110294117648,223.16377253033977,175.36933525277965,63.27077747989278,5.092624187571589,1,2,-4.029110063773274,-11.464416712126138,-5.474496268054155,-1.4278326421525784,-2.059072210315918,-3.6867490223925565,-0.7696009736115844,0.06659750988666428,-0.0369299946407395,0.06984678222244156,44.99896264829027,-6.600046014169714,5042.691163137253,0.45408996738544327,9.691702084611055,2.7694073663718988,8.78145276299149,0.002691957172613921,1672.4618618501438,153.93462842100408,0.7858324550815597,184.42807260116427,1
2,34.967733333333335,-45.423066666666664,12.347866666666667,63.00000943349617,4.712226442570415,0.12473328583333335,0.05244876134744079,9.115900205833466e-05,22.046823253194887,2.1662258830833303,87.60252248754632,733.7239583333334,210.13438830579028,175.8574720137571,66.33906633906633,3.8135810298845505,1,2,7.969066308114776,-3.4953504040113614,1.969978122170754,-0.4353274595583903,0.4881367609774543,-0.7854677246692245,-0.7157705062286125,0.07479723392017454,-0.1269600298033966,-0.3237668418292472,58.63844448050556,1.577723840823175,5518.959743113479,0.4981450090590878,2.7422483203996615,2.7913879823781156,10.926950477160128,0.02421204628613663,1931.3573298169642,150.77697555287125,0.8368809761772406,240.90454586636287,1
3,28.694333333333333,18.151466666666668,20.3894,64.38870319193295,7.3696111110310145,0.5948301166666667,0.1489150305356091,0.000265276582435126,22.53262056676438,1.8761365352469315,99.6654884041794,646.0024350649351,231.40746053549344,175.29718435201298,78.95878524945769,1.5051672165502799,2,2,12.062965916633075,8.567615512621714,10.016016112373931,1.0670513294753905,-0.5602876617441268,-0.03607545038334398,-0.7775575895046287,0.11445503241559817,0.532463458303778,1.38869375843678,39.605152947003695,-2.6969048506432807,6417.331551335742,0.5685515611904542,-2.6464050013429166,2.722483493835793,59.284034095098356,0.07937323736196489,2245.7246338126297,161.88781004565473,0.7575260708810456,1335.824645931974,0
4,51.683733333333336,6.346333333333333,17.695133333333334,63.61294500059397,6.04500027720492,0.8165034725,0.17508786462908915,0.00047539780359916834,23.33445088366301,1.706999631975436,100.65149923678463,647.7610930735931,246.2552973405354,192.14715083968164,80.26030368763556,1.8566165977559055,2,2,0.9860108326052313,9.553626345226945,6.524488374619163,1.1898537787984922,16.849966487668667,8.144839412962284,1.0806134066775466,0.09502783241914797,0.30646778354890697,-0.7757581913389799,54.99638153309119,-1.8210314737071753,6402.738285176906,0.5238250906823922,-0.4794880974142428,3.020566770133355,82.18229863916575,0.10257053449183678,2348.6474653077958,172.88758395595087,0.7802762129984557,1917.6788111021385,0
5,50.109,7.3356,22.992466666666665,63.38578493780027,4.192469576784828,1.0814063141666668,0.1299093002103601,-3.9543341790517266e-05,23.155361448959926,1.750653007806226,95.88712897421728,680.7883522727273,269.1441641848276,197.59436338735844,81.09339407744874,2.5517677288813516,2,2,-4.764370262567354,4.789256082659591,-1.8891797149810556,0.5964765882259143,5.4472125476767985,11.14858951767274,1.6813180059145914,0.0661421102680806,-0.5014591270663181,-0.2271600627937005,55.61813042325117,8.006488738123748,6077.880935462853,0.4852725899927128,6.081649291765883,3.1173292318447468,103.6929467200321,0.07420619599148989,2220.301129701039,182.61064054987824,0.734158082103782,2401.047661010087,0
6,-37.473866666666666,-16.986466666666665,23.769266666666667,64.19167698534952,1.8640652193207234,1.7863495666666669,0.4053286602466722,-0.0011547110022784772,23.01764686259465,1.4240364027161132,84.67526587306965,802.9909517426273,277.1528974747134,277.7358708099296,80.91397849462363,2.2822555147034724,1,3,2.7974589088317146,-2.8176105229125454,2.7974589088317123,-0.27433703741267657,-15.557370456891306,-15.557370456891341,0.5002355062418643,0.02903904846957277,-0.5040904100562801,-0.5040904100562784,47.51640527901916,-11.525973459796734,5435.447315572676,0.3048769513324434,-0.9333936895109889,4.326664756657668,151.25962449974278,0.2846336368042102,1949.0253678626293,211.9342489264222,1.0021034358310088,3481.6406213037494,0
7,-42.09673333333333,-1.8606666666666667,40.474066666666666,64.22095929977921,2.732200569034949,0.7653987066666668,0.16993957878113805,-0.00047335846899199433,24.028961677700366,1.6994004530934619,76.4049767289553,901.8598942598187,297.04440939917225,302.1839443046779,83.63636363636363,8.360446156495888,1,3,-8.270289144114344,-11.087899667026889,-2.736415117641301,-1.0795748812851709,24.448073494748257,4.4453515189284545,1.019341136216579,0.04254375205267827,-0.23740404781328717,0.0292823144296932,58.42728053161468,-0.30754910360059645,4906.8009008108165,0.2528426076769888,5.46861568667625,4.7053787874566675,58.480270371239165,0.0999997254748242,1835.9322578056554,227.62157244673793,1.0173022441859831,1405.220175652062,0
8,-34.04193333333333,41.9538,17.7548,64.93203206428058,5.101739442246309,0.4185475425,0.05824581563860641,-0.0001540428412623905,24.4926285959391,1.7917163430236394,75.76759374427604,903.2760574018126,295.1342004232476,286.337588070065,78.48484848484848,2.196975797620571,1,3,-0.6373829846792631,-11.725282651706152,-4.4538360643967945,-1.1416337635516274,-15.84635623461287,4.300858630067733,0.6828756581600158,0.0785704571388703,0.37017753946553705,0.7110727645013668,56.87009304151973,4.676843881250297,4919.7438264367165,0.2646093165425661,9.555575506643104,4.409804753635239,31.71234016280511,0.03250839111078976,1855.7475331865517,219.98554565938704,0.9701945340778281,776.7185695156684,0
9,-50.993,-5.2188,-4.8848,65.57724494384172,5.735545214599926,0.8546812983333333,1.0267966307694882,0.0021476288166380674,23.343730684644022,1.6041623615608043,97.53339718570753,676.8240950226244,236.00857388209795,225.85334789004187,71.88208616780048,2.415441883809561,2,3,21.765803441431487,10.040520789725335,10.564210228376128,0.9775966923513407,-60.484240180023136,-38.16529820731801,-0.6013854354160265,0.08746243029135588,0.678142822031255,0.6452128795611429,51.49158371501114,-3.467848408301768,6395.971477452145,0.4318439273317673,-4.8286650137762015,3.4440810168126847,83.35997053754119,0.6400827343751192,2276.793356661574,177.91466931331342,0.9569709446355568,1945.932702108222,0
10,-59.54793333333333,-12.6942,-16.412133333333333,65.42370995887764,1.8087311989318189,3.904650718333333,0.7235492368694965,-0.0011357915595913669,24.030094833052818,1.6746157263664259,100.01601207658094,644.5900537634409,228.5441170898034,180.72152503809244,76.07758620689656,2.5456228154888825,2,3,2.482614890873407,12.523135680598742,12.124209166152465,1.2193168338188651,-45.13182285194944,-52.80803151598625,-1.559668849383229,0.027646417484864506,0.24583894729854974,-0.15353498496408235,63.05915634118666,3.0945316498334647,6543.418565341834,0.5534261151352805,-10.315477967220646,2.7623245821638847,390.52759339965706,0.43206881762626853,2403.394255023996,161.78107611159746,0.7907511571040803,9384.415104317652,0
11,-62.05126666666666,11.9448,-3.4058,65.56445502265368,2.662599778867349,1.791669173333333,0.32748446338717346,-0.0008809299706110931,23.401782992989943,1.55097310791919,96.17508219904788,684.3607305936073,274.7468345286693,213.11008516922902,83.06636155606407,1.5482398172793796,2,3,-3.840929877533057,8.682205803065685,-0.6791574933298056,0.8453441662185749,32.388560131136586,-6.371631360406384,-0.8719629688172515,0.0406104157801262,-0.006394960594006677,0.14074506377603768,63.28220457299016,5.895310428989526,6305.666851139495,0.4512929628430445,3.3417572721971545,3.2503905026771784,172.31393001883345,0.21114773796854014,2250.6684029550884,190.30776041798745,0.775659838028057,4032.453196969996,0
12,-28.057666666666666,-6.7758666666666665,-54.4322,64.62015446637106,1.4952491684256877,0.12742288999999998,0.006215373193373027,-1.5689951868022424e-05,20.528842928474905,1.604092986558006,69.36387941876772,929.202251552795,299.06375682522514,223.97369994154454,80.06230529595018,2.5373954532310026,1,4,0.8933582781450156,-7.734904017856579,-5.938082519347826,-0.7277629700389918,3.3801634583444695,-0.30878812827047364,-0.07487753640681609,0.02313905283534767,-0.07434215972499346,0.06463648207422068,61.611763687645094,7.428943541821685,4482.304602427507,0.3096965363664334,7.433331687773514,3.4660037309582545,8.838545977150902,0.003874696320884557,1423.9601854975558,201.0332540209066,0.7489162254871167,181.4451220810346,1
13,-49.21306666666667,-9.941466666666667,21.172,64.49677371145972,2.0379190725079503,0.12068053,0.0021382835306463276,-9.340381694711189e-07,19.297128882039598,1.6916818121302246,63.434953839306566,1004.5092281879195,304.94470549789077,219.06658016811227,80.13468013468014,3.0237438285070044,1,4,-5.928925579461158,-13.663829597317736,-2.517783650658061,-1.2856047323785966,-4.907119773432271,-0.7634781575438596,-0.2876445349584532,0.03159722502748777,-0.029372136418564013,-0.12338075491133793,54.48864353443039,-4.55797762474003,4091.349863170649,0.28956928757027717,4.555702723166011,3.396550930618686,7.6553638498530505,0.0012639986522960407,1224.1124798633314,201.38198860022771,0.7183813203460504,147.72654284952114,1
14,-46.989466666666665,4.4126,34.022933333333334,64.42409783900015,2.4123745489183603,0.116516795,0.008537616933194823,1.6467206025837365e-05,21.073858857710835,1.696970231690543,74.4546877223332,887.2867210682492,316.87323159786445,250.42072294258196,81.54761904761905,4.707340083758026,1,4,11.019733883026639,-2.6440957142910975,2.5454041517827535,-0.24877812907019045,31.354142774469693,13.223511500518718,1.0718345807545338,0.03744522049725919,-0.0980283136854472,-0.07267587245956975,58.18110525748219,-1.7153292150814503,4796.676086395798,0.29731839501991314,-0.13302960286439314,3.8870659808280594,8.675221586132116,0.005031094107460885,1569.047580355386,216.28052452935515,0.7902867707688996,182.82039526551452,1
15,-53.99953333333333,-0.9948666666666667,6.1158,64.87913895450838,2.596445362720399,0.17341546249999998,0.007774376984273001,1.2414918847165575e-05,21.712179594571953,1.6867266805918883,68.98031785800748,923.0324074074074,228.52609042182254,190.9331995765313,65.01547987616097,3.1164610804765656,3,4,-5.474369864325723,-8.11846557861682,2.772682009350467,-0.7638515756645105,-59.48752336605065,-14.066690295790426,-1.5074751533162303,0.040019725979115746,0.1911826215243342,0.455041115508223,54.353862508033615,-0.0673905131983841,4475.383627435823,0.3612798489195087,-0.176236646630068,2.942905835533715,11.962253724743375,0.004609150417627175,1497.7130498237173,161.4915899581716,0.835498472949409,259.72660122746544,0
16,-37.4856,38.64046666666667,7.2596,65.04963446998768,4.362986972360916,0.14743974999999998,0.02499221243029183,-6.697735631066437e-05,21.222431291777152,1.9466157251102436,75.25707171284563,866.3294797687861,296.85354613556643,226.05889540639504,68.11594202898551,0.9253529262850294,3,4,6.276753854838148,-1.8417117237786726,0.40119199525621074,-0.17328328715631786,35.12569582986373,-12.180913768093477,0.015534110533566084,0.06707166009324605,0.31276831549377787,0.17049551547930264,54.3227177499228,-1.9291937537796853,4895.445006202258,0.3329091352262156,3.961794977104705,3.4751754375425072,11.09588383907403,0.012838801263087729,1597.1380336462123,197.00946119031565,0.7615165739106885,235.4816323962891,0
17,-20.700133333333333,59.891733333333335,7.8984,64.75742336404035,4.054723901464532,0.14999492583333332,0.022271195597759585,3.6980261218931246e-05,22.80076002533418,1.6013174532938026,83.71612372582263,797.9166666666666,328.7044079043286,253.50836880772903,86.63101604278076,2.205355134848766,4,4,8.459052012976997,6.617340289198324,7.367902933907584,0.6226134431025786,27.44947340133399,31.287584615598895,1.2057113095995307,0.06261404007183077,-0.06085779523401162,-0.2922111059473309,63.85843690734129,4.7522871996538445,5421.240466509479,0.3302302160252788,-3.3131790324430517,3.9147382913595568,12.55699376930892,0.0139080452485853,1908.791247323667,222.94793091827944,0.7712350753796833,286.30900157362925,1
18,-39.345533333333336,-3.9155333333333333,17.171466666666667,64.55432272579884,3.3976193744165966,0.15629374499999998,0.0033400013093772365,7.085588239991549e-06,23.087733386870113,1.6079480220768492,69.13205676496389,927.2445820433436,316.5941530945891,227.39851308985175,77.32919254658384,1.8064333441781197,4,4,-14.584066960858735,-7.96672667166041,-3.0625074739408626,-0.7495747394759641,-26.10985571787728,0.6698088417283834,0.07361837317148821,0.05263194207533299,-0.2476558720944089,-0.2031006382415086,43.10755922171114,-5.60757926410583,4462.773103103724,0.3040127902403435,6.46012684835746,3.522591516189534,10.804908051348791,0.002077182386196316,1596.1024950754568,207.1072862436749,0.7182650433279217,249.46083635918717,1
19,-55.2816,-16.390933333333333,-14.286,65.2934950360208,2.972413045735902,0.16015045583333332,0.013079846567960293,2.2973808596394586e-05,22.149243713593975,1.5716805170845807,79.09790376783971,849.9200994318181,299.39583335191895,269.36407704162644,82.62108262108264,1.4106372164338261,4,4,9.965847002875819,1.9991203312154084,-2.3091099789914473,0.18809357509181124,41.9655639517747,7.927854116948754,1.8931963530871072,0.04552387713502081,0.2680358359902241,0.7391723102219601,59.40376915733359,-2.2273338750038403,5164.578587025093,0.2936468156515519,5.281523024727349,4.125435049350474,12.667565343880662,0.008322204433903023,1751.9587477882849,217.12699767154268,0.8996921367472998,280.57699205948967,1
20,-56.6168,-4.343866666666667,13.654533333333333,64.963777141752,2.801938521234938,2.2920191658333335,0.419020816777518,0.0008512815547753821,22.264673575624435,1.670817011637938,96.71135502936947,674.908295711061,271.1406645431324,207.51133197531087,82.57918552036197,2.3842706382549252,2,4,17.61345126152976,19.61257159274517,13.789649132202792,1.8453109850474738,-61.85274506631558,-9.943590557270426,-0.7886666393734713,0.043130782176058875,0.20472720797658348,-0.3297178942687964,58.40186213134722,7.647151454818049,6282.7349152048155,0.46605336509922535,-10.987710610967854,3.1942620628147247,221.66427928102678,0.2507879760972405,2153.2467507852357,187.07706067960177,0.7653272235094801,4935.282821568112,0
21,-46.36171222475323,-9.197892938496583,27.173785117691725,64.61867204166604,4.279396387637605,2.3789141941666667,0.2652380605459772,-0.0005106622523869851,22.47749383589136,1.6055042154997021,95.32648580214922,680.3267045454545,268.4065221776368,194.987319692447,82.68792710706148,2.4538358167107037,2,4,-1.3848692272202499,18.22770236552492,8.114291017154784,1.715011172717456,-12.524012282863879,-37.18837867458974,-1.3316932265123806,0.06622538428023181,-0.33741149717736824,-0.3451051000859593,54.51994307169958,-2.4419130428169997,6159.8709229336155,0.48888556170535546,-3.834894629517179,3.017507332079063,226.77353015476,0.16520545881184354,2142.700497014994,182.02725632571511,0.726462673524008,5097.300626196941,0
22,55.61006666666667,13.020933333333334,-16.835933333333333,63.27072600358815,1.9166718495544066,0.7693482625000001,0.01259185063027911,-1.3679585968463786e-05,21.38965494047219,1.3050106426311257,83.9148785447562,795.7114361702128,268.58158482727987,237.05788656215404,64.0,3.15751346557498,1,5,-6.951841754043045,-11.867786934932354,-8.374445155509317,-1.4740071390652447,-5.82085816120275,17.966631234548977,0.9524015919667307,0.030293185658178002,-0.08659602007992678,0.07312914835154771,59.54387349464819,7.2197353425338795,5309.355288029648,0.35398475624547454,10.291117005063724,3.7467229758354166,64.55976600630673,0.009648848997040957,1794.9102964439685,189.87982379647795,0.8826289662212018,1380.9111179125273,1
23,37.46573333333333,6.7426,32.8676,63.17470309488337,2.584161154675441,0.7554312958333332,0.020549267782494086,-3.4907496480902285e-05,21.407654246188027,1.239125847911616,89.45504896727834,753.7389798488665,299.0218016120744,248.1213197350899,73.73737373737372,1.707339953840222,1,5,5.540170422522138,-6.327616512410216,-0.7058356657604417,-0.7859049006943557,11.063433172935873,2.6212875058666056,1.4009222303409217,0.04090499880615563,-0.011446880176610698,-0.09602290870478214,50.29336893393049,0.269610006106483,5651.296158846063,0.3605294728492367,3.2899968204358823,3.9275422542926592,67.57714356018536,0.016583681001511814,1915.0227588673142,206.96016502817932,0.8297766865072318,1446.66812428146,1
24,59.295,7.286466666666667,-1.7328,63.23396876756256,1.4884423299510334,0.7686295483333333,0.06412867660892951,0.00010514083097279826,19.82917721790635,1.2619486278013423,81.53780990734799,811.4413956639567,249.62687636389018,222.64918321444674,60.326086956521735,5.342631967629935,1,5,-7.917239059930353,-14.244855572340569,-1.1885343187041029,-1.7692446724653819,-25.472136520643176,-7.2043516738535995,0.3682609619616362,0.023538651123137584,-0.018378618012783267,0.0592656726791887,59.76614608057345,0.11113629296264074,5155.959325056696,0.3662165221715524,2.6769766486551365,3.52103756940878,62.67237000117407,0.05081718478561137,1616.8276826127633,177.53404884495288,0.8919279304279838,1242.7415314194782,1
25,47.4422,-7.411133333333333,25.855,62.909827428753964,2.1266122239523404,1.4650607141666667,0.16148442587499204,-0.00044221775072413516,19.127425084251755,1.5963391615036198,100.96541424767476,655.3610503282275,267.5579902224058,214.4317753977002,68.85964912280701,3.846037851027321,3,5,19.427604340326766,5.182748767986197,5.755182640198223,0.6437096255500647,-8.217407816746544,-16.844772168694792,0.035120521545330186,0.03380413380343081,-0.132437833064704,-0.3241413388085945,54.53593552075956,2.1212832934145367,6351.716786593875,0.4708509902022041,-3.6285704162458825,3.4085576253088408,147.92046190383172,0.10115922090321147,1931.2083971228437,183.61647158097102,0.8014403726812838,2829.337553493457,0
26,36.92046666666667,-34.00953333333333,31.8798,62.67471285314763,3.0239547134216886,1.2544064058333333,0.2640388563016615,0.00044959778508526577,19.89054935802989,1.6128759611850694,95.48634308329336,694.2792923433875,275.4571385432199,217.06795697571977,74.41860465116278,3.344129314075472,3,5,-5.479071164381395,-0.29632239639519753,6.9742665879726955,-0.03680394079757147,2.636181578019574,-2.7906131193634636,0.14199348093880715,0.04824840156040412,-0.2796279572074542,-0.23511457560633175,59.46503901012389,-0.1505535352247804,5984.579134142551,0.43989146981321875,-3.950311874551007,3.4634056325223774,119.77868043328259,0.1637068582184445,1899.2758201160227,188.98123339003416,0.7880280689899829,2382.4637551978963,0
27,40.2246,-41.81073333333333,6.815533333333334,62.62733853073659,1.187491146570538,1.9125291708333332,0.1423115289633743,-0.0003392370594042109,22.082335565465527,1.3890089229807823,96.44027998811141,691.6137413394919,298.1799262964906,228.2086561223947,84.02777777777779,2.525377150957653,4,5,0.9539369048180504,0.6576145084228529,-2.26256712978166,0.08167727357111434,11.140699146674933,6.888440362347267,0.5936465451454082,0.01896122642969627,-0.14124444900868474,-0.047374322411045,58.417526151394746,1.9407953153176036,6039.798062814474,0.42259693915287266,3.450058276352198,3.643914268630128,184.4448487205972,0.10245544618819072,2129.626624724926,203.47212006555438,0.7653387636010044,4072.9730427697527,1
28,40.502066666666664,8.238333333333333,29.5894,63.27298752640264,3.6975554289778834,1.2339936916666667,0.1683435387001283,-0.00047321076389636555,25.35903739164186,1.7065867852748726,98.81541290452476,664.5302106430155,252.021988059133,201.53756986773672,78.44444444444446,3.0556502943433848,4,5,2.3751329164133494,3.0327474248362023,1.664534910615705,0.3766743858564039,-26.67108625465798,-7.7651935539914945,-0.4876211270212998,0.0584381356646857,0.29913733662750064,0.6456489956660505,50.83129088211534,-4.316874064004265,6252.3463881243215,0.49030765072272536,2.0330205183621786,3.185207061677494,121.93759616362048,0.09864340926149498,2505.863750716373,177.33466745710473,0.7996824857220358,3092.220060560177,1
29,55.827466666666666,4.6734,20.572866666666666,63.086257049179466,2.8295414572306146,1.6572785,0.5823041339850379,0.001609244963343723,20.801188639350823,1.5654603426840072,97.80754278382454,671.454596412556,278.33520020427306,204.95958815327035,79.5505617977528,2.0232246662249267,4,5,-1.0078701207002183,2.024877304135984,0.6836313978565646,0.251494538821078,3.4220182855336247,-11.624533984562152,-0.34888970414703857,0.044851946994173705,0.22945925922145405,-0.18673047722317193,59.68073009659167,0.6316019725984595,6170.311785408973,0.47720403416052576,2.14591005937405,3.2488785116006125,162.09433779346259,0.37196990438395133,2034.5131477977106,187.6151167184321,0.7363768147286021,3371.7548978124687,1
30,51.370066666666666,11.909533333333334,15.722266666666666,63.14242976548217,3.0577055631880143,3.117277140833333,0.4739487015514981,0.001309742646359473,24.60539647629978,1.787675319068362,107.54951735512611,598.3345808383234,235.8340004775605,170.06920332671515,77.60000000000001,2.219391920169801,2,5,9.741974571301569,11.766851875437553,4.367052225300686,1.4614707665222402,-34.89038482655519,-15.734183270510757,-1.7633744694918065,0.04842552899127677,-0.06527888046022332,0.05617271630270437,55.026451845392806,2.0975804816387407,6790.937845907556,0.632386785020266,-1.3093466621126715,2.6934218601493285,335.26165195879247,0.2651201236019156,2646.2985153575623,161.16773460142522,0.7211394581880791,8249.245869745315,0
31,33.409056316590565,-13.278919330289193,25.45719178082192,63.875756762657794,9.394215372912399,3.8619535958333335,0.3375045201104436,0.0008885014002474939,23.136727039313275,1.6579380280132971,105.8892488197512,608.8351117886178,235.05184853451132,174.6791935482773,78.61507128309573,4.228094721393397,2,5,-1.660268535374911,10.106583340062642,4.040853017963348,1.2552614970665643,4.609990221562157,-15.14019730249649,-1.576481691747921,0.14707012251640864,0.3947498567391726,0.7333269971756238,44.05182579543094,-7.814452150580352,6763.755901390977,0.6061926784903159,5.35336235494905,2.7346711752106363,408.93936523952874,0.20356883937023532,2449.9306463405087,162.78203778862812,0.7431517541230065,9461.518469177012,0
32,23.433933333333332,-17.171333333333333,38.43653333333334,62.96159284156778,3.499299003987456,0.38507822166666666,0.04942865627758387,-0.00013382713017161867,21.70823103760176,1.4805740345468168,83.25339849103912,781.9843342036554,287.6889815376452,213.2119545154927,72.77486910994764,3.387551304583747,1,6,5.693711899585665,0.15202576266480605,0.7345678189520507,0.026456302929341098,-0.11497776313589725,-7.819068214879106,0.1723008287020714,0.05557831125385997,-0.11026138942141471,-0.185187801650315,48.180608283831376,-4.61635544281017,5241.766578469598,0.3904724680647172,2.764731185035405,3.386381149308332,32.059070638635696,0.0333847920632441,1807.284009109003,191.2252683876952,0.7411196403001382,695.9457122742987,1
33,51.041,-8.450333333333333,16.2862,63.12294327377559,3.411915266978548,0.2365842916666667,0.025344840576468363,-6.479729970645842e-05,21.236709168705904,1.4824991999712014,81.69542710462558,786.8009868421053,265.0411187108894,192.32257413963967,68.86543535620055,5.212947958713563,1,6,-1.5579713864135414,-1.4059456237487353,2.0678702565860694,-0.24466986826495862,-20.889380375853023,-10.502179069494446,-1.1460406487134542,0.05405190395163382,-0.011918684721244906,0.16135043220781142,54.23865895175179,-2.874978458686175,5156.855810852149,0.42478334665240924,1.3440450103924788,3.0467934655503712,19.327854753953645,0.01709602310541598,1734.9420258341468,175.40970940224324,0.7256329699899428,410.46003026470333,1
34,26.787933333333335,26.642933333333332,35.2438,63.45310106227887,2.855981835882635,8.623708872500002,0.6785227137846784,0.001530513830915845,22.262228228428988,1.5815074786182783,91.41163604677287,715.6175417661098,279.3203674518651,205.1262257198868,83.9712918660287,1.1579941653165537,2,6,9.166782147017884,8.310263318398555,4.858104471073654,1.4461946443833946,-19.99548563678391,6.401825790123564,-0.33799442441622657,0.045009334265310445,0.1650788942516428,0.3791203080691261,51.66783048779536,-1.2854142319782116,5800.351780344133,0.4456360237718476,-2.002122635191019,3.232721790631395,788.3073368262961,0.42903541270477324,2035.026704407344,189.47262834592686,0.7343761845624664,17549.47784657205,0
35,49.2036,21.813533333333332,22.68326666666667,63.24809543112316,1.9375304734475363,8.842347798333334,0.24025617171347408,-0.00021450987788882065,23.476578362754697,1.6393437641015571,89.5331323707737,731.6625916870415,315.6047893815554,222.73681320969112,82.3529411764706,2.833227961817792,2,6,-1.8785036759991698,6.431759642399385,3.6441392355093654,1.1192878002079634,17.610587489804317,-1.1924490734897675,0.7734204434130415,0.03063381529895231,0.08705733845671391,-0.20500563115570714,58.40680676184545,2.6191958255170493,5662.800100434078,0.4019682722339942,-1.706608762061829,3.5216366306336244,791.6830958965978,0.1465563092833958,2101.931598165358,206.8981812559057,0.705745985813954,18586.010239284722,0
36,42.2736,13.442866666666667,32.7218,63.05438165946424,1.5309757920857483,7.320164318333333,0.9218740026356559,-0.0023950719784319456,22.376669130564164,1.6202821921070758,87.35256782825635,750.234962406015,270.92177700809447,213.54392521810354,80.40201005025128,6.865060189438021,2,6,-2.180564542517345,4.25119509988204,-2.029534109258243,0.7398147748299159,-9.192887991587583,4.208849749108393,0.19325170128250238,0.024280244319166266,-0.19935970140731563,-0.19371377165892056,55.122446575036726,1.7273080436206918,5507.9621507771135,0.4090613550817579,3.560509901343991,3.386662690385588,639.4351501311944,0.5689589178517208,1954.6595079980561,188.2892374254831,0.7882124780678793,14308.42878493836,0
37,25.99921383647799,-40.55110062893082,8.132861635220126,64.06043823075012,7.5718800103933654,1.6249274516666665,0.20511631007221487,-0.0005841985142420273,25.663848807501882,1.8324200203135084,73.07738936955776,867.6177536231884,237.8661378903462,180.09609814500487,68.60465116279069,1.849203304833176,4,6,-14.27517845869859,-10.023983358816551,-8.227871500607964,-1.744424995151943,-33.447827073098665,-21.3203575323431,-1.9176609714006982,0.118199004245318,0.4061713998134929,1.0060565712858818,48.85175862453897,-4.777524068653234,4681.369587773031,0.4057688629375548,15.799751511001329,2.811346601859633,118.74545608272824,0.11193738760675707,1875.4470720272757,162.18896239938059,0.7571321405488464,3047.465431484992,1
38,57.0982,-15.443266666666666,16.834,62.92507470641085,1.2967805748389594,4.779378085833334,0.12150723825344782,-4.672702264724433e-05,19.499073865784727,1.6425612359125392,79.59219113204614,803.3854166666666,216.61118670992988,183.14487469866094,55.256064690026946,2.463847184273068,1,7,-4.396990171301084,-5.443470908261787,-4.396990171301081,-0.47258064663683347,15.39003414673769,15.390034146737666,-0.6684501068066504,0.02060832793428281,-0.06927275467753287,-0.06927275467752736,61.498638070918105,3.1597861584346973,5008.344573030934,0.4345859573106695,5.69377074614004,2.9105229138405635,380.4011740999595,0.07397425167284154,1551.9740140234237,151.67070869953926,0.8455005370702086,7417.470592406346,1
39,54.010666666666665,-20.262933333333333,11.873933333333333,62.969708561816795,2.0391837353518922,4.591090420833333,0.22692234246512702,-0.00034948260517195847,19.980970504281636,1.4448142041128664,84.82965155152567,765.4251918158568,239.82968800128748,199.72428705382222,62.051282051282065,2.1295806446669507,1,7,5.2374604194795324,-0.2060104887822547,0.42023512408922037,-0.017885017049494255,16.57941235516128,15.984723250949498,-0.1281057181675227,0.03238356635159021,-0.01231944963578364,0.044633855405948,58.8959155956789,0.2785318415977569,5341.698435600041,0.4247337786412114,1.6189486112626719,3.1717517588000734,389.460600640839,0.15705987788544765,1694.9787655395235,167.20175236879726,0.8327754946366358,7781.800773984414,1
40,56.02146666666667,-9.8466,15.041066666666667,62.85890490211054,0.7794920402152936,4.299961728333335,0.08853037946245457,-1.0712719772725647e-05,19.113314651146077,1.5649778070626026,83.1612435565885,774.1661269430052,225.97922287696696,185.94124280151507,58.44155844155842,1.88297560015538,1,7,-1.6684079949371693,-1.874418483719424,1.7845262122711933,-0.16272961021243282,-13.78304425230715,1.39818405142708,-0.5773128710242079,0.012400662108720916,-0.03308490215013832,-0.1108036597062565,58.83531206270224,-1.3316630041079165,5227.424700264849,0.4472447417064707,-1.0050341720558997,2.958073166133042,357.59016457393767,0.05656973476743569,1589.4870148776702,156.78734137334683,0.8228245076440044,6834.733331656779,1
41,55.0168,-5.808933333333333,14.323866666666667,63.053136751313254,1.3930108231894869,4.1502357075,0.2679669603216541,0.0004968421379007822,21.000300004285773,1.5282469385824737,84.49664343565236,788.7532981530343,286.2914376733138,242.77175407541344,73.28042328042328,2.661151376751948,1,7,1.335399879063857,-0.539018604655567,-0.16650405793664425,-0.046795466537866,56.83051127389837,21.523733510795672,1.274866640077948,0.022092649072854787,0.04171409474823996,0.19423184920271552,57.14687344899593,-0.8745210733414834,5327.7784135751435,0.3480497284760525,1.5595148811261312,3.8502723692027057,350.68098675053994,0.17534271036734878,1774.4548615038636,200.78120500971684,0.8479881761341375,7364.405927560303,1
42,52.759933333333336,-15.063333333333333,16.586333333333332,62.91777381535312,1.9044171777035783,4.54422092,0.1145586220562436,-0.00022544449465590764,20.81913377532685,1.7232154823883192,82.67536102918088,806.0983827493261,305.33271513894744,248.83875383831395,82.97297297297295,0.9750326219751138,3,7,-1.8212824064714823,-2.3603010111270493,-0.2429412637037991,-0.20491201237119744,6.066999762900508,31.448755518399484,1.4725979714141677,0.030268349660503478,0.029434456621301966,-0.13536293596013138,57.32033696597861,-0.7574875483618104,5201.7496653366625,0.332244714385025,2.1473584414073774,3.9549833821776006,375.69510515735647,0.06647956870574838,1721.2294011899608,212.3814806500781,0.8149757346672634,7821.646653006493,0
43,50.206266666666664,-13.001666666666667,15.460733333333334,63.356872726164084,7.332531056461991,4.3249007299999995,0.10717272619906042,0.00014010134336898047,20.89702188733405,1.652834662737243,89.16015182148811,749.2578125,306.9785558063255,242.38411562905137,81.45363408521304,2.24078417003825,3,7,6.484790792307237,4.124489781180188,2.3317541929178947,0.35807191416763723,-6.454638209262583,-0.19381922318104827,1.2622330041670027,0.11573379084150917,0.15186798742543373,0.4390989108109622,54.1178974454847,-1.5144880017556073,5648.908391199489,0.36784651181554223,5.000776863544097,3.825695640802358,385.60880569966474,0.06484177069566821,1863.1816440916639,210.27210184019665,0.7895799593961633,8058.0756526546365,0
44,55.5434,-24.21826666666667,-5.2622,63.15491469585366,5.324642375419607,4.351547543333333,0.057928890945622244,-0.00014060753346356909,24.201152435830274,1.5354420189283136,67.62555084234374,944.8442429022082,202.34185996258182,201.4535645833512,65.18987341772153,0.9407689946578619,4,7,-21.534600979144372,-17.410111197964184,-7.524905093418569,-1.5114770973544815,-40.930551045700156,-23.692594627481306,-0.07174633766210724,0.08431081573084903,0.1185704402502803,-0.20195803031042203,60.821743420735466,1.7507032273784398,4270.885894708334,0.33568803136603576,12.849547468838177,3.189831897702578,294.2757996345643,0.03772782705663783,1636.6162644925512,156.3284326545515,0.9956099277757213,7121.813485131937,1
45,49.334,-9.461466666666666,15.049333333333333,63.09382259689755,3.398580602431026,4.361793288333334,0.045655634283917966,0.00011033034071550873,24.551282665567836,1.692588427033437,70.9682962744614,903.1816465256798,247.30136753074336,217.19722214912878,65.15151515151514,4.64377666938677,4,7,3.3427454321176526,-14.067365765846532,-9.09592777351336,-1.2212731402698798,15.743657565777568,-12.5934467399613,0.44135972665962203,0.05386550477602764,-0.13152506463325353,-0.06109209895610945,52.4389677745684,-0.8394648354581473,4477.661095144933,0.32674587292367996,12.494508375944385,3.4424482424268357,309.54903837439724,0.026973854691856546,1742.3627021280665,176.55003494379574,0.8782693938080541,7599.825939984532,1
46,57.833466666666666,-8.499466666666667,13.917666666666667,62.96146733488462,0.9601203248853019,6.403705005833333,0.2526907853504439,0.00046944166036572447,22.803474815209935,1.7132770488155233,107.18785517371202,596.644671314741,217.4462592341844,159.2157698604397,74.45109780439121,2.5808214551234494,2,7,36.21955889925063,22.152193133404097,19.781152165684144,1.9231659233301572,-57.98145228868907,-21.118897361455716,-1.4483304335339764,0.015249332099878408,-0.09672368048451181,-0.13235526201293624,60.08870314582157,-0.36652013745693934,6748.704642216013,0.6732238558683193,-18.82103184079884,2.5287810794625982,686.3994047404381,0.14748973934200665,2444.255555950112,150.37104229967179,0.732207444824186,15652.29153917367,0
47,38.337920489296636,-14.883792048929664,25.075305810397552,63.139866493661664,4.4782685417469565,6.8373790525,0.22618879421611437,0.00035842456579135814,23.08001070377308,1.7237559062467671,101.70615632304127,638.5927505330491,242.79738654578125,191.77814405174374,76.49572649572649,2.255629805948807,2,7,-5.481698850670753,16.670494282733344,15.368930024289957,1.4472664777050155,32.56237419130403,-12.709539048692495,-0.38708074638440276,0.07092616425149569,0.023021948382062823,0.17839915877704726,48.167357979075106,-2.135804897746632,6421.713131820309,0.5303323603197846,-10.890661482543,3.0373542369406383,695.4035427534528,0.13121857531940717,2347.379176575411,170.3570856977505,0.7898690623491639,16049.921210191413,0
48,50.712266666666665,-17.661666666666665,9.794266666666667,62.956605169874166,2.6439992721708316,0.38584776083333333,0.04698602346585241,-0.00013420086869157642,20.638919104597235,1.4418470327579718,74.86863565608456,834.2183147632312,169.3649242503913,147.0373459629035,52.51396648044692,1.976706222402806,1,8,-8.207594648240288,-9.414458541748857,-8.207594648240292,-1.2764410365771985,-53.976035270280846,-53.976035270280875,-1.8257143530009465,0.04199717035308047,-0.12969449459373045,-0.1296944945937284,54.58567687089108,10.551974478443222,4713.475134607279,0.5091810835989404,10.851593920411123,2.3355348216540843,28.88789542454689,0.03258738437459439,1545.2077147774935,122.9720788979139,0.8681688172075203,596.2149367692879,1
49,39.17786666666667,-39.36493333333333,-11.534133333333333,62.924572307436556,3.104072581763539,0.2936477908333333,0.01234030995790149,-3.0165515250358266e-05,18.30100411317701,2.152321460942961,80.73332551045164,789.2480211081794,217.53310902440896,176.13546119023314,65.07936507936506,2.3386488756689303,1,8,5.864689854367072,-3.5497686873817855,-1.1714523969366013,-0.4812884780189582,29.098115227329657,-12.438960021475571,-0.5773196219143798,0.04933005450712763,-0.08086367851566387,-0.03203286243761028,56.72335889772396,6.344828252638062,5080.109978702226,0.4583592906649117,4.27552497870014,2.79915225375739,23.707162682772513,0.005733488320325085,1477.500922237234,152.91597843133573,0.8096949562306368,433.8648817691763,1
50,30.984733333333335,1.0872666666666666,45.4994,63.19259798514062,4.728300599059754,0.25835212,0.011100449663741857,-2.6420881958946174e-05,18.695614715258028,1.8394738408410725,80.43324009530629,784.827302631579,223.63387580076684,158.58672442580362,72.03166226912931,3.7992285152415657,1,8,-0.3000854151453467,-3.8498541025271322,2.7823022196108633,-0.521974974929132,-17.54873676442952,5.774689231450081,-1.3302120461413154,0.07482364627850221,0.11799640763323613,0.2680256777040668,55.058434856997366,0.2363789930531537,5082.785405984984,0.5071877225495635,1.9459983794488904,2.5095774975657257,20.780098097091383,0.006034578702498068,1503.7488671216902,151.41742083189993,0.7091355183017395,388.496707768487,1
51,26.192333333333334,12.864066666666666,47.129866666666665,63.00730531934164,2.5512630326819012,0.24277512583333333,0.008146944709521434,3.8720156402855733e-07,21.50393568916429,1.4389078017126153,81.97590679840502,794.7140957446809,229.71052889089202,211.1571829822045,78.13333333333333,3.746389177864183,3,8,-7.447287055377188,-2.3071873994284005,0.7713333515493632,-0.31281551271850083,2.991253199781312,26.285229278200458,0.9252152542143962,0.0404915433178941,-0.09264633289948336,-0.36798234853633005,55.43236300814414,0.1869640755733903,5165.080988476999,0.3882222013593136,1.779929681132538,3.351312654313308,19.901711088284383,0.005661894875978007,1762.8046278538272,173.00034840214326,0.9192316260022195,427.96511534679524,0
52,22.016866666666665,9.5806,5.1922,64.68427653616028,10.149300583137604,0.2546860266666667,0.014236192488429703,-1.5281519001055184e-05,21.46080561591175,1.518895568189849,79.66664268868226,805.5087601078167,219.35997243901616,191.71634585573025,80.27027027027029,2.5803892520671075,3,8,-2.3092641097227613,-4.616451509151162,-4.878275582549964,-0.6259125921600426,-19.440837126474236,-8.224791963346451,0.09114615912030152,0.15690521911401245,0.654494434141156,1.676971216818643,24.566018298002177,-14.334727772833565,5153.179146382195,0.41554433930786683,15.027576165687568,2.963878598606216,20.289980684253536,0.009372726332591615,1709.710332814107,163.78219618833893,0.8739805340239498,435.43933141536917,0
53,47.614866666666664,13.4868,6.246333333333333,64.50626906456566,12.905447869143961,0.24897843333333328,0.017047854241484143,-6.966514594802201e-06,23.58033340691191,1.6340398553060589,87.15366400291823,759.121192893401,264.74066043374535,224.90069153183094,80.66157760814247,2.978051349720765,4,8,7.4870213142359745,2.8705698050848127,2.5888786022566164,0.3892006195917677,33.18434567610069,6.871754274813269,1.5148521955061218,0.20006501780821692,0.7494818726120196,-0.1780074715946256,49.88071753729647,-2.7758227354238216,5621.957700134994,0.3875206564363206,10.316569266887345,3.486493503758987,21.699382722706307,0.010432948857475111,2055.112454822789,190.10097652457293,0.8495132223488395,511.6786793255987,0
54,12.2116,30.917,16.253333333333334,63.72553563008416,5.120772271725575,0.2629254375,0.009412880109337444,2.671309757506748e-05,25.000952417234938,1.6816782001708557,72.74142970245688,863.8457369942197,193.18084941243563,173.38056068645943,62.898550724637666,6.448601713492108,4,8,-14.41223430046135,-11.541664495376537,-3.4626064931126783,-1.5648541152923245,-51.52013084537151,-9.167892584635366,-0.6955129566616642,0.0803566768187055,-0.4793704530380637,-0.7807334344814976,37.002093292196925,6.218037497097377,4635.486570287178,0.41954777972170915,8.583378764838253,2.7207391236719425,19.125572228893972,0.005597313510028917,1818.6050227527649,143.15332027451092,0.8975038737732064,478.15752124696814,0
55,46.3412,-14.991733333333332,-21.051733333333335,63.03601179050094,2.450391305042049,0.26637090666666663,0.0313179870677585,5.27197748748435e-05,22.37269590505761,1.6958130670876534,90.8588245580186,716.6193181818181,270.5864230290166,208.07821885194932,77.69784172661869,2.5327217155484396,4,8,18.117394855561713,6.575730360185176,1.8525802775501903,0.8915576015323038,34.697658165489884,-8.41123633994082,0.7931186367054747,0.03887287973080976,-0.7351286370323586,-0.6895238395832166,53.06066680805619,1.589974635379868,5727.377936110317,0.4366570639765468,0.5978110274918589,3.3009419479543154,24.202147476187008,0.018467829783587655,2032.7568521275307,185.4541612025282,0.7689898721549523,541.4672857340895,0
56,48.52713333333333,-0.4968666666666667,25.681866666666668,63.27894766370178,4.700948405143854,0.38168165416666666,0.051475600292739655,6.864161967126348e-05,22.40768263404596,1.5252548069035103,93.94298959853376,683.3618721461187,228.81833097419656,177.03707532762454,75.28604118993134,3.49455507472303,2,8,3.0841650405151597,9.659895400700336,10.600779948038445,1.3097181153667006,-31.04114352432478,1.8282573205825983,-0.5386377234546675,0.07428929491886009,-0.22329398319118432,0.24293587320083532,54.906172890850804,8.952039799326943,5944.613522177298,0.5306402000487345,-5.899831542894591,2.7977246630391153,35.85631566733032,0.033748853017708316,2105.044696617425,160.3804824972508,0.7737014537860111,803.4569418997077,0
57,37.293785310734464,-1.3585552865213881,30.354317998385795,63.30373802316186,4.392118748070384,0.753902145,0.10058402915111478,0.00024162260175180568,23.93552063828056,1.6879758006981205,96.52304760503682,672.5772471910112,261.9699593603501,197.89355123741308,78.82882882882883,3.268965461197903,2,8,2.580058006503066,12.239953407203402,2.83211152350913,1.6595302582154705,20.856475909788543,-5.0923338072681,0.3561664393372658,0.0693816650521234,0.13386311633047507,0.024790359460084233,48.10464339766814,-2.478011705194015,6110.269718786432,0.4877523623874215,1.5600072245612542,3.1260957771389597,72.76893263137437,0.059588549260904566,2310.329398020096,179.56411314219736,0.7554055118403962,1741.762288823909,0
58,28.897733333333335,28.985133333333334,35.430933333333336,63.4135260184889,2.455032498582768,0.2760553983333333,0.018439569432644853,-5.158240093222328e-05,23.847922969013922,1.5474711300053796,84.68509878955156,748.3203125,203.60339846741562,159.14194337788464,46.867167919799506,4.286322839867297,1,9,-4.906232700494854,-4.015699882943608,-4.906232700494874,-1.065810365106463,-13.243513277732063,-13.243513277732081,-1.7251141700055663,0.03871465052845314,0.1402897729775435,0.14028977297755318,54.134720679307726,-0.21835309144502096,5370.180715469531,0.532135629739861,7.361265199077642,2.5095898440010296,23.37777867924734,0.011915937606267815,2019.5637125565597,136.53750325503324,0.7816271465790562,557.5114651293466,1
59,41.6102,15.153866666666667,37.40626666666667,63.19036746161242,2.3047906773490356,0.23801595250000002,0.011611312574105356,-2.78658942506213e-05,24.652156342012585,1.8009532080342272,87.81368564337201,732.8086797066014,262.63910734058027,184.33570826492922,60.53921568627449,1.3069443596552492,1,9,3.128586853820451,-0.8871130291231566,-0.8888229233371943,-0.23544943322990092,25.19376488704458,5.975125804656268,0.9617620225969034,0.03647376601741041,-0.041434391949459484,-0.22315855687648423,57.96789805512089,1.8074121421840839,5548.9790639631965,0.47637913453418435,3.1936136006862297,2.917148811640678,20.901058030942767,0.00644731496759947,2164.796707448753,169.17134376392798,0.7018593313519368,515.2561502922788,1
60,32.265,-12.282733333333333,20.830266666666667,63.37162272264177,5.694848563905737,0.21482240666666666,0.0032027251788576726,2.5525631753907154e-06,24.249654053538197,1.683029997370973,83.8051414233476,763.0804707379135,257.0649528567536,179.6725081009113,59.6938775510204,2.388374423275859,1,9,-4.008544220024405,-4.895657249147561,-0.43997868310196997,-1.2993606076770001,-4.663200164017923,10.265282361513346,0.4644389127633779,0.08986433231843137,-0.020951647923561134,0.1812552610293494,40.321157877003266,-6.906781401152228,5310.867804498022,0.46643274390006584,6.134827247007706,2.8352202065593737,18.00322217160389,0.001902951928284454,2032.2456874240231,165.47711283622843,0.6989381714785199,436.571909510383,1
61,60.00253333333333,-11.797666666666666,5.113533333333334,63.00138301734656,3.3296653337728994,0.43187058166666664,0.10124407775249537,0.00024229978449290563,23.340375688066796,1.654902915258789,87.74641019943799,724.0715579710145,235.88596892878073,166.30001396710463,59.564164648910406,2.9398762221221064,1,9,3.941268776090382,-0.954388473057179,-0.03363772196701513,-0.25330506675634357,-13.372494133806669,-9.017847148912296,-0.9617169748117169,0.05285067048220389,-0.09449222213293061,-0.3702397052952051,61.3647876908791,1.6984448178791167,5528.145197371998,0.5276392200974539,3.3633030557399146,2.639624772708425,37.89509321199321,0.06117825814371903,2048.034179334099,153.91671584826523,0.7050017206293197,884.4857123022315,1
62,31.304266666666667,35.18553333333333,15.7978,63.49255229006782,2.4617751778620045,0.9639597533333332,0.0635006335861763,0.00013401020270152828,22.578910989939327,1.4905071655614794,95.81384264843685,668.9801897321429,241.42432933592679,172.81983158084444,71.58836689038029,1.4566754482619484,2,9,8.067432448998858,7.113043975941679,6.004350612544623,1.8878791289202501,6.519817613739804,-3.4263382600334213,-0.2663884756767585,0.0387726605573407,0.06046478371304539,0.4911692727212582,49.6744335884053,4.67663785570103,6083.465414468206,0.5544146248586111,-3.542575434682618,2.7218913498613193,92.36068812530598,0.0426033735720119,2163.372224763108,161.94417593571714,0.7158343653939554,2085.40375615083,0
63,41.537933333333335,12.629133333333334,31.427733333333332,63.13054592247176,1.7302518691462685,1.1188764708333334,0.042438583411138375,6.41054446669734e-05,22.969647251845775,1.5996842776498805,90.06628884411717,710.5106888361045,229.53332410567324,175.87380178794396,73.57142857142856,2.9867188260490947,2,9,-5.747553804319679,1.3654901716219996,1.1599393223395977,0.3624159227006078,3.0539702070995247,4.7868939104196615,0.05931273965023467,0.027407522679609414,0.06458145256259615,-0.3620063675960594,53.59661684123977,-3.8840854248196615,5685.933983940145,0.5121074737475976,0.5703125468066708,2.7858748317819573,100.77305140296144,0.026529349574833303,2068.790884032224,159.65951815501526,0.7662233903212008,2314.7214432181463,0
64,38.686,7.204866666666667,44.562333333333335,63.25438613882144,3.2718752320660074,1.1329260566666666,0.05662158739500441,-0.00013238252807814635,24.11471715446337,1.6534452430414228,92.3562682814589,701.1490046838408,262.8782573290338,190.93142734442606,74.88262910798122,2.5213324692253822,2,9,2.289979437341728,3.6554696089637275,-1.7287871834889625,0.970201337782573,15.057625556482094,9.055797881790832,1.665185296063548,0.051725665709337156,-0.119083075623182,0.12384021634967723,59.45013247920946,4.887849445402086,5841.939056215988,0.48371433180112744,5.00066241555497,3.0184693264895257,104.63282283256196,0.034244609933892986,2227.145287049118,176.23077126048034,0.7263112182969363,2523.1909276803085,0
65,31.073033707865168,-4.645599250936329,38.6310861423221,63.99603368827845,9.314957861364325,0.47301371166666667,0.04630976282248914,-2.0319122006335685e-05,24.138162242933358,1.6359732745662552,86.42912073268789,741.0272277227723,220.04914866987104,176.39815818659054,58.06451612903227,7.829682206273186,4,9,-5.9271475487710035,-2.271677939807276,-1.8185840557146382,-0.6029279988562061,-14.53326915783552,0.2621781993232989,0.11523454134517472,0.1455552371688694,0.43274388290334614,0.7416475494570136,49.794335347968406,-1.9011407466356807,5531.12092205738,0.4899661149029614,11.133541917078963,2.7563920021891564,40.88215919385515,0.028307163413025326,2086.2401387596956,151.5039409951646,0.8016307231946261,986.8201914627053,1
66,37.0198,17.421666666666667,35.76166666666666,63.35276183934924,2.7835290538022113,0.3878648691666667,0.010443922933396051,1.0745371965535523e-05,20.113497593563682,1.5905918771007352,101.30452821743837,607.5367647058823,131.92591756784523,105.09448509408134,29.065040650406505,1.5586501578367093,1,10,3.672310839377019,8.042323914817956,3.6723108393770096,0.7795921069096071,-32.95361495532853,-32.95361495532855,-1.618932081418316,0.04393698037759933,0.35113335886483515,0.35113335886484265,54.340379684560745,-1.9199013278906625,6417.921649407008,0.9639376144505797,-0.8887817855747984,1.658877693472995,39.292467583047625,0.006566060775082544,2037.5883845185508,88.6951477707777,0.7966174276562044,790.3089521768075,1
67,27.940666666666665,30.786133333333332,23.4942,63.63145036829752,2.672861891972041,0.4169661166666667,0.011234622114089501,2.2294579051790163e-05,20.60088289498121,1.6978000173363026,98.44453976546102,637.1343085106383,203.42717805410226,143.98242107832135,49.68017057569297,4.401366341726835,1,10,-2.859988451977358,5.182335462840598,0.4061611936998505,0.502355769921725,38.887935984240016,2.967160514455763,0.3609571940291635,0.04200535861592925,0.3149109439065771,0.27868852894827967,47.75399766548928,-4.253141673481054,6264.168846115825,0.6837260989533199,2.2667006982721905,2.2627555710611422,41.04803745304153,0.0066171645655391294,2028.0444353585835,132.3632565693722,0.7077836032313669,845.6258126389114,1
68,46.71853333333333,-3.6128666666666667,2.5558,63.13256488256901,2.4430141249861124,0.4091887708333333,0.017852912375715697,1.6462006466664803e-06,20.265428383065323,1.75262236832772,97.50573516995117,629.0047268907563,127.57624784088101,98.43304783838174,27.368421052631575,1.1944952099833797,1,10,-0.9388045955098505,4.2435308673307475,-1.8993965237435941,0.41135164470345936,-45.54937323993961,-3.3307186278497896,-1.9580837449823307,0.038696576474126936,-0.11009847839011093,-0.49888548572851477,46.927670685949124,-3.7063544993058084,6155.787152039533,0.9905792446807866,4.3424106487297065,1.5591485386713746,39.898251923392834,0.010186399933232742,1975.995493024779,84.45923891063144,0.7715624930524057,808.5551669630157,1
69,51.516133333333336,1.4211333333333334,6.297666666666666,63.15634041924378,1.8094929810844553,0.42174595416666666,0.013079609437227063,2.5022837679053434e-05,20.067369024582522,1.7769191758669087,80.47479814601456,781.6579634464752,209.8355390591049,165.85549080505788,55.23560209424084,1.3350110834120643,3,10,-9.770831457310479,-12.787406156605854,-8.515468511968292,-1.2395622227015082,29.309944929507793,33.711221483338086,1.4745739257227963,0.02865101063602953,0.011887768337402828,-0.03649229512594587,51.91909301031109,2.495711162180984,5082.493746879624,0.48521033141671605,10.324961493052747,2.6261098581388316,33.93992053046081,0.00736083532378218,1614.9174715748636,143.6422106528012,0.7904070566346769,681.0849099497617,0
70,43.3176,-20.133066666666668,16.8076,63.01740938828081,4.774262315424757,0.4155547225,0.014131633140953446,4.207715633829399e-06,21.5778632441698,1.542455855597516,84.39181018229579,744.0679280397022,207.82158852119434,153.24125745564695,50.24875621890547,3.4274897502011887,3,10,3.9170120362812213,-8.870394120324633,-2.9269097105146282,-0.8598620640784033,-12.614233349410938,8.347855790048452,0.8323494235889701,0.07576100575649201,-0.08771166304445292,-0.1389310309629721,50.638426722445125,0.8704515318828735,5318.153251275819,0.5507120669249891,7.701172025939385,2.431728890658205,35.069415261576594,0.00916177476954706,1820.994939041515,137.10386739858225,0.7373692913526108,756.723046567301,0
71,56.44226666666667,-21.833333333333332,-11.118266666666667,63.02040736822401,4.430845119887532,0.453018555,0.0067093542246608965,-1.399243550169228e-05,22.600430484390174,1.5593194194889684,81.96891616571571,764.4261508951406,196.10815498985667,149.32232288310885,53.846153846153854,3.443843650232276,4,10,-2.4228940165800736,-11.293288136904707,0.7470590098505938,-1.094728139010315,-3.9189345725380917,-8.266583960974485,0.6328259380922596,0.07030810026343373,-0.06796652550987202,0.0029979799431956167,61.53080337998738,4.805855184838155,5165.714488295206,0.5489394621924172,3.683786110036938,2.369428043224166,37.13343995630867,0.004302745249501052,1852.5327916840638,133.0922105730398,0.7614284214281261,839.2317283788306,1
72,37.00533333333333,-7.834466666666667,17.695533333333334,63.19143511126066,3.226349109959061,0.4509249625,0.007416051484298127,1.7254561548305764e-05,24.94993724190134,1.6464326793882804,80.22541935672822,770.1237146529563,149.27657246528858,133.29952669018977,41.49484536082475,4.488308395937947,4,10,-1.7434968089874872,-13.036784945892194,-2.083195412783773,-1.2637360483043414,-16.02279619291909,-9.970865382728583,-0.18293765393529426,0.05105674691955411,0.08701286148993637,0.17102774303665313,41.76009414516846,-4.439166288638327,5069.559381554366,0.60184323790843,5.309544522742834,2.109455566977309,36.17564421497945,0.004504315042540035,2001.619178155586,108.02364817210103,0.8929701726718439,902.5800528490885,1
73,50.934,3.8354,13.862666666666666,63.16091863131588,2.6691117714126475,2.218538924166667,0.15479075143440174,-8.749396567289607e-05,22.00083812716675,1.618734772001936,109.82628235193657,573.455459770115,188.6399190094873,143.07704714225025,48.56046065259117,6.637489473817357,2,10,29.600862995208345,16.56407804931615,13.928683093110434,1.6056583448086417,9.777520452060486,-3.1226378704292777,0.31486217507461417,0.04225891309454883,0.07025563154594318,-0.030516479944779462,52.92594993262862,-4.302426723679384,6936.728883210589,0.7676023777254961,-11.259571321697788,2.2652780861555266,243.65388229428996,0.0956245297943205,2416.270260133467,126.75914226810958,0.7584664364442102,5360.589623412415,0
74,44.81843267108168,2.2075974981604123,18.16777041942605,63.076437824525186,3.774861689225429,2.9521815966666667,0.21302175632076253,0.00016176220370985806,23.408917682926827,1.8394917407729143,103.86437099189679,604.9242424242424,195.78573740741692,138.92035771825343,64.97975708502022,1.6046403181322217,2,10,-5.961911360039778,10.602166689276373,11.819475817584292,1.027733470405353,-4.1566894239968235,2.8104155140318334,0.10323395147147597,0.05984582863932274,-0.057498643367739695,-0.08448080679069392,48.41108629042668,3.3254960726291234,6551.394539053796,0.7476540656114038,-8.044614128358862,2.2024128233478972,306.6264845916369,0.11580468212988847,2431.3525107382848,133.2286174035635,0.7095530019593282,7177.794137210859,0
75,-49.51153333333333,-7.1142,27.865333333333332,64.52267331227932,2.9632350514616377,3.3172271833333338,0.3658358134285444,-0.000781148937200656,20.212897753804814,1.572345913136581,82.22541641241477,762.2767857142857,219.46813069333228,148.05940030008014,60.61381074168797,6.601599202115366,1,11,-2.3071224712246874,-9.48185207844962,-2.307122471224697,-0.8033253055639985,-16.52635636106143,-16.52635636106147,-1.3918683626121766,0.04592548478455098,-0.15981364867690118,-0.15981364867688796,57.258017573398014,11.66261643312705,5305.403681144369,0.555354240868258,5.270357522686335,2.294687904340365,272.7603864841651,0.23266878513949893,1662.013934708164,142.7137805783668,0.6746282470823376,5513.2778032927135,1
76,-52.376733333333334,-13.940333333333333,16.102,64.73056864067999,3.090180704675707,2.8814795333333336,0.13719644762044272,-0.0003509984339016968,18.553730913281473,1.9881334731374953,82.24238938393418,774.6689276485788,236.59890501769013,177.75243066462804,72.27979274611401,2.7755047984233623,1,11,0.01697297151940802,-9.464879106930212,-1.1450747498526264,-0.801887314608292,29.693030364547894,6.583337001743234,0.655897068129272,0.04773912495391983,0.02404083986188998,0.20789532840066727,56.541396269596625,5.472997564662841,5323.596631190283,0.46267940536028157,4.235255454528334,2.7460353222802376,236.97976178223698,0.06900766446225137,1525.9031622948316,162.21037614281073,0.7512817130380961,4396.858732001169,1
77,-41.7618,-8.434333333333333,23.8168,64.45817043526584,3.9375962385978682,2.9665245191666667,0.19183697839808667,0.00038673442476348525,23.592673500252065,1.8350474028656703,106.77597379851757,606.3385627530364,256.9271574652126,187.99138563006676,71.19675456389452,3.373403484465738,2,11,21.86826815600196,15.068705307653175,14.156619856580912,1.2766569437670068,3.8629446169616415,17.082347758778933,1.3620216289345417,0.06108762026611233,-0.1315953891890543,-1.4746816708642712,48.81010018692625,-0.5197070999602599,6882.583917496326,0.5679833300481659,-10.219023617983044,2.9164864817622553,316.7535443311999,0.10454061192016498,2519.130687499894,172.03843255305796,0.7316913769830673,7473.062951453618,0
78,-44.20086666666667,0.34086666666666665,12.275066666666667,64.62169768351161,3.326608157592918,3.1198811049999997,0.24046700197802048,0.00043769221372375646,21.800622874939283,1.562608825144212,107.20286664312871,598.0227045908183,235.38635959046138,167.31285483916557,78.0,3.041655975060011,2,11,0.42689284461114596,15.495598152264321,11.14758050030656,1.312824331952671,-20.678530790901192,-8.407793086969747,-0.0640632129375698,0.051478191951643985,-0.6555772113092545,0.1635272482457708,45.874939409660264,-5.501237846381357,6927.631239018076,0.6407329915292381,-7.820972342713642,2.589112608422593,334.46019804173204,0.15388816324893592,2337.089266799257,160.23307147654234,0.7108009789958348,7291.440644185306,0
79,-40.267066666666665,6.044933333333334,15.5298,64.48741566136991,2.576992041968522,4.756717000833333,0.6052801194742294,0.0016671017484005143,23.051371628199988,1.531261248949865,105.55096413662869,609.6932281059063,255.17308082916372,177.54823572591712,76.73469387755104,3.191744266341821,2,11,-1.6519025065000221,13.8436956457643,-0.61250483094443,1.172871179887358,10.235380886751557,-5.2215749520748105,0.641814863265338,0.03996116165517585,0.014622613052038816,-0.13428202214170426,43.57926760493139,-2.615416290997421,6806.708897737123,0.5944917622559592,3.1894968729129523,2.753222952909422,502.0760655630511,0.3952820721410726,2433.0945000282372,169.81867014421064,0.6957953211560909,11573.541972918392,0
80,-28.38843648208469,1.887214983713355,25.67711726384365,65.0298882647396,8.121559177934637,3.3206092725,0.10218742660658688,-0.00024291178735194176,21.92633746826956,1.4296801298100168,93.4648274316447,675.5784424379233,219.23175377597045,152.97086942083553,67.19457013574663,3.2234414798482067,4,11,-12.086136704984,1.7575589407802994,-6.869019605741988,0.14890461921020923,-24.577366305081597,-7.170992709164993,-1.0531512779576846,0.12488963759050922,0.20409529061400067,0.5424726033696885,38.32465599680298,-3.775141706428642,6078.007284563023,0.6109975525047038,14.990578783676625,2.352316314088807,310.36017262213176,0.0714757269656997,2049.3413476798196,146.46573111085087,0.697758726945888,6805.061881623255,1
81,36.8152,-10.0156,37.144133333333336,62.987812533610985,2.95774783081305,4.203539158333333,0.4008136276316629,-0.0010361732370855912,23.032574641278377,1.477587714009362,88.96655961472361,714.3123508353221,269.15813597323444,182.20637881809577,55.98086124401915,2.5830263764912087,1,13,-2.4855151453411395,-0.9643401948383712,-1.871181206743824,-0.18153850306553182,9.495825599684338,-6.6733431037334965,0.3243935596693652,0.04695746227470216,-0.13127675185711987,-0.24758618926623654,53.24807823278174,2.579434198632054,5603.808978772537,0.4882735703521613,4.828929037556874,2.892724300088119,373.9744171226876,0.2712621550866004,2049.1289249038637,169.11512534511644,0.6769491776990709,8613.593676306877,1
82,28.3816,-8.4452,47.70693333333333,63.01709312636636,4.042718627714316,3.4749105108333334,0.29714759866756996,0.0007985149085971523,22.084763425337247,1.551238920065328,89.59010194416358,709.4194312796209,259.49708978729615,174.06829210270695,62.94536817102138,1.9128733792455002,1,13,-0.3820944677868141,-0.3407978653984003,0.31177116471999183,-0.06415571461554975,45.16992177534564,-4.069043357694399,0.06916201452327603,0.06415273106310329,0.014640296377694397,0.04773479421209714,56.149693762932586,1.450807765075431,5645.707797416012,0.514683635642374,3.7309474629943242,2.762239270405786,311.3175869124039,0.19155501762104837,1978.5762066886991,165.50358335367483,0.6707909219536402,6875.375257107307,1
83,52.498533333333334,-20.778866666666666,-3.146,63.069537496840475,1.7682118843532286,4.435516744166667,1.4478766857897338,0.003114076499799645,21.400713357111904,1.550343753094857,89.3790228598049,713.0580357142857,250.5250211250876,180.9194702202406,65.39379474940334,2.103179368484599,3,13,-0.21107908435867273,-0.551876949757073,-0.29658677607272654,-0.10389167212102222,6.851178117533664,26.010549946439674,0.28403276217733864,0.02803591011654095,0.050089582343107335,0.0524443704741131,56.54869245263079,2.1637921063814467,5637.093633687427,0.494026553675918,2.0647986604259554,2.8685713346277923,396.44215247191994,0.9339068725238682,1912.774848361437,165.61276203157718,0.7221612811676291,8484.144867728011,0
84,32.7772,-12.9368,35.2792,63.39303123130924,6.271118292584159,5.981310799166668,0.653223886477253,-0.0015989915905323664,22.280634677881853,1.909267635953833,88.56490047525622,714.8624401913876,236.33027332322186,174.4621716415281,62.82973621103118,1.3095244708942657,3,13,-0.814122384548682,-1.365999334305755,-0.5126007344536608,-0.25715144475538826,-6.457298578712511,0.19693976941058278,0.08151510030505475,0.09892441126063256,0.187969052471441,0.3234937344687623,49.86308841939095,-3.14330267177081,5614.397501825712,0.5076452914365156,6.78371902703782,2.752071726194584,529.7341956397712,0.3421332212290474,1973.2821927721488,157.87406039192703,0.7382133875118123,11802.814089431336,0
85,55.583133333333336,-17.911266666666666,6.819933333333333,63.26177935400107,7.315600200873315,5.99432526,0.551820748398352,-0.0011202702536529659,21.738609514954877,1.4825556875475638,86.37655373172379,732.6858108108108,252.26398481387477,172.0812143177955,68.2266009852217,2.0440660221541402,4,13,-2.188346743532435,-3.55434607783819,-1.5012345640405473,-0.6691110355052003,-2.380957323732588,-4.419127951222535,0.006842092027318427,0.11564012703367994,0.09612092858032112,-0.13125187730816634,58.7946398528528,1.1229737001110116,5464.334483535328,0.5019522530231183,8.816834764913862,2.7201449809800056,517.7691579058192,0.37220912039477666,1877.706172821462,164.190600038964,0.682147372106091,11255.581542601614,0
86,33.413866666666664,-7.671,38.0428,63.229945388359496,5.848208231450725,4.4253668699999995,0.3431108144057127,-0.0009823645518642818,25.14548458941017,1.6834599231430605,78.24504991922836,778.0844155844156,71.06798983851661,95.06050158541895,26.041666666666664,7.281690867928136,4,13,-8.131503812495424,-11.685849890333614,-5.15992527801393,-2.1998789509082295,-77.02071273237657,-39.70083502805456,-2.408727587485282,0.0924911162824975,-0.08154292147486006,-0.03183396564157448,51.211183919704276,0.674047750156669,4947.430233302272,0.8231078922491427,11.008133509464656,1.5034094921029286,346.2630516540493,0.20381287946856289,1967.5096969415863,64.05671936353407,1.3375994143273087,8706.952229249035,0
87,42.24066666666667,8.9514,-3.3463333333333334,63.30639718969602,3.634071389013666,4.310066281666667,1.0302719469799226,0.0018768460774347701,22.700422344562373,1.5639821323410572,88.15100369233072,721.7996987951807,238.0015818888231,175.82099259804642,64.00966183574879,1.34867447186518,4,13,9.905953773102354,-1.7798961172312602,0.8872249803034612,-0.3350681413714918,80.76049101262747,1.8698891401254611,0.12413125621959469,0.05740448912491834,0.022308917847484414,0.07645180133652474,43.30819124810251,-7.743224302375142,5580.522452417049,0.5013679077133266,2.746846408710205,2.7773020994055493,379.93666870938847,0.6587491798501259,2001.0650139129846,159.27741210753942,0.738738756283465,8624.722843889194,0
88,49.904333333333334,-3.7884,-17.6666,63.20272058635132,2.621750779587645,8.889382745833332,0.9458841799075056,0.0021971484841760195,22.046823253194876,1.6296205916267914,94.85408980123034,676.2838600451468,259.5053814209358,190.6938078915255,68.09954751131224,1.5017270600751966,2,13,6.703086108899626,4.923189991668366,8.304519941001002,0.9267979766668136,14.872815293479078,47.816653153053295,0.5905813888839385,0.0414816127417435,-0.013612401004093656,-0.1036766033447023,53.07450626774068,0.9316611740182091,5995.036534179838,0.4974156756981411,-5.682769161413358,3.0171771579644444,843.1943092507825,0.580432147683691,2091.2313526904,172.7662456079245,0.734835658695674,18589.75590415174,0
89,41.03430728824688,-11.106943532501642,19.778890347997372,63.0723413447289,3.7365425290518943,13.43568035,1.1776254490689477,0.0033105134432523673,24.413136592547414,1.6736474107941544,100.91032247605582,648.3022186147186,292.7623210736921,219.8818235190696,73.75271149674622,1.5675349349979846,2,13,6.0562326748254804,10.979422666493846,6.379659391862554,2.066892955481475,29.188015627544104,22.030415460511634,1.505993400196028,0.05924217254960309,-0.11702792248354753,-0.1303792416224212,46.886917926630176,1.7893633392638413,6364.650304416462,0.45892980330124655,-2.64311686281066,3.4861845199482375,1355.7988368037065,0.7036281605515455,2463.537486205958,195.46561869650262,0.7510591619599931,33099.30219490579,0
90,-45.05553333333334,-34.941,-9.933866666666667,64.72225325245095,2.2327114888112143,0.2717970258333333,0.0060861513001649326,1.46035040614608e-05,21.460805615911756,1.6561587504794135,76.84168888749659,804.9815188172043,182.7833585119877,129.88922998478347,68.733153638814,4.754975908113048,1,14,-1.0987471514778093,-16.760922874661958,-1.0987471514778238,-0.8702732762962734,-28.72566298825899,-28.725662988258996,-0.6740542856745587,0.03449681333099546,0.4132092725264927,0.4132092725265011,57.875351160076974,-1.7179526808375498,4973.367248522601,0.5915939936275286,3.3314586402890383,2.0068712297650655,20.88534249963187,0.003674859851691847,1649.0845484129306,127.13524737852838,0.7106184668133494,448.21627560634016,1
91,-41.8504,-27.505466666666667,-12.4952,64.60068882999698,2.1650102439871755,0.28543277833333336,0.007376116407649573,1.7642480286443935e-05,20.202501262061016,1.6400281160980188,77.34648402272805,809.839527027027,231.41479744671366,156.98365129453057,76.1517615176152,2.107038033561675,1,14,0.5047951352314612,-16.256127739430497,-0.29697600812316644,-0.844062922637262,27.094421309747105,-0.8156208392559319,0.7516915772272575,0.033513733107159445,0.14582242503627357,-0.12156442245397159,51.61527583720842,-3.989014001853033,4996.636146446588,0.49270406753954,2.461986252110342,2.4300615319689056,22.077221828922045,0.004497554849973516,1562.5924410851455,154.85007008628648,0.6783647935507587,446.0151018615986,1
92,-50.0738,5.1242,22.155933333333333,65.08475187853603,5.403240346563785,0.30421662,0.00845425977888859,1.7179718041470476e-05,20.644336169583255,1.703005214282085,79.05254336253428,786.1430921052631,199.80285107035974,139.27470828689394,66.75461741424803,4.046315899045416,1,14,1.706059339806231,-14.550068399624266,1.105427237518846,-0.7554796231189788,-17.708943007636634,4.692739151055242,-0.18017745739275678,0.08301852877379859,0.18124931304254494,0.48406304853904203,54.99571123234166,-1.4398199638676479,5145.115170117753,0.567601567917782,4.297813109044939,2.1398976277410844,24.049097544153614,0.00496431819937354,1631.9872802367152,135.27739225716724,0.6970606652547162,496.4776542766063,1
93,-42.053266666666666,-28.63446666666667,-0.3416,64.6703400447582,3.973636264432014,0.3336181025,0.010145372382536143,2.0471408490561063e-05,22.886423494433746,1.5390863271075994,115.90856018417773,553.8066081330869,214.38265967311466,163.812387055922,59.44444444444444,1.2082631038090106,2,14,26.238112519998438,22.305948422019185,18.428008410821732,1.1581862740668354,13.194550679362237,12.268839384514035,1.1110290825147755,0.06144449312748114,-0.20720591688889586,-0.7837711590218106,50.87756489045267,-2.059073170944491,7495.846001209095,0.7075689547032857,-14.45437214638972,2.5330373152439045,38.66919391215243,0.006591815029376755,2652.732395005153,145.87983039116037,0.7641121129185496,884.9995480618998,0
94,-39.665933333333335,-27.341933333333333,-5.0622,64.67844780585125,3.5562418495433197,0.3388630058333334,0.024585574950923273,-3.6825048611145546e-05,23.441189518725764,1.6657361225448428,122.16394830616265,514.9001288659794,168.77385365608617,136.3937017541684,36.144578313253014,3.625878497440873,2,14,6.255388121984922,28.561336544004106,16.24675032099171,1.4829832530956173,-27.418685301753584,-7.112067311195684,-0.331779999409362,0.0549834136437269,-0.3878316989643742,0.008107761093043564,48.441649997175865,-4.303437230920786,7901.374554276851,0.8956714704515868,-12.69050847144839,2.108796736353227,41.39684272749423,0.014759585637947532,2863.668264600576,113.7707112411692,0.8081447380593711,970.3912358520766,0
95,-50.49653333333333,2.7516,38.1254,64.42435212889811,2.018411777877555,0.34261123166666674,0.036427008653511436,4.787168500811415e-05,23.48263651612102,1.6148177687136842,109.89678563101536,560.9492041198502,113.09750191846412,106.00353972198012,22.138836772983115,3.2503972024397596,2,14,-12.26716267514729,16.294173868856817,-3.0058872765811615,0.8460383824585281,-30.390162032188286,-28.904423666970935,-1.9309522900801726,0.03132995072793567,-0.12299395793003487,-0.25409567695314195,63.33259276552985,6.227513937538591,7080.029215326564,1.0367274987469166,5.024299054458717,1.645395484373615,37.65187308124982,0.022557968681833435,2580.666271263205,80.41329280447579,0.937275695075933,884.165249718111,0
96,36.43893333333333,-14.445,42.900933333333334,62.752652790809016,2.615715526613815,0.2650575275,0.011419927856569138,-1.3884513930218243e-05,20.80377795838283,1.3275267846584728,90.37759389551148,702.6481807511738,229.3142350190082,165.43326734948874,56.235294117647065,1.1164902744483776,1,15,-0.864098133433501,2.460542358581961,-0.8640981334335205,0.48637994962696623,-15.43823220708228,-15.43823220708231,-0.19942753049690778,0.04168294741791254,-0.06584665074946956,-0.06584665074946372,58.11147880016669,3.4130227677621714,5671.433769793773,0.5463084589768415,3.4798136600473355,2.636275238669169,23.955261579343368,0.008602408620709746,1880.1953958151164,150.32759882871468,0.7214260699331454,498.35994283163865,0
97,34.931533333333334,-15.498533333333333,41.849133333333334,62.81809800100292,3.4871999564682485,0.28573771833333333,0.016341094273864605,2.8148495096176942e-05,21.004200840168032,1.4317245983473823,88.73987631702664,712.5,212.06736590874266,155.24752820860294,53.699284009546545,3.8308976632318172,1,15,-1.637717578484839,0.8228247800971218,-1.25090785595915,0.1626492930307043,-10.1857391408858,-12.81198567398402,-0.7283656608696293,0.055512663825201675,-0.0002007202777751375,0.06544521019390714,56.67244936698372,0.9869966672896145,5574.470247079858,0.5716025032371927,4.7381078124273985,2.4713821442785835,25.356329784009397,0.011413573736685728,1863.9101846944982,140.3380593756307,0.7320670370160086,532.5894433528679,0
98,46.373133333333335,-1.0304666666666666,23.294533333333334,63.0048380681129,1.855437058360668,0.3089264025,0.014472798008177053,1.5487138237595462e-05,20.622586642513227,1.2565233322758624,92.21306361125016,692.2632794457274,234.30988678857545,170.14859619205637,60.1851851851852,2.169395363290906,1,15,3.4731872942235213,4.296012074320643,0.9177348578693401,0.8492006362000257,14.90106798345343,2.357664421283811,0.045436115389019566,0.029449120341437953,0.12609263865194575,0.18674006710998015,51.90534307679702,-3.103067861684827,5809.869140591411,0.5419560615428645,0.937702200491328,2.70056393617819,28.48705000492717,0.01151812913968209,1901.67189389459,154.88122272193903,0.7261690854111775,587.4766569162174,0
99,43.6588,-1.422,24.9936,63.0727929798447,2.81431798517039,0.3931042416666667,0.0770068749541879,0.0002017967347893988,20.621898492208395,1.5367614503417462,90.52728416904881,714.9090095465393,253.43294701926277,193.66914578453535,75.8373205741627,1.515932203129076,1,15,-1.6857794422013512,2.610232632119292,0.8937039260110968,0.5159695022915637,23.52054959247897,19.210808787966222,1.2668413914034593,0.04462015795098408,0.12734748942089533,0.06795491173179613,50.32686104258838,-3.1727941621976643,5709.808653421988,0.4674326585935964,1.9206140591592933,3.0705655095352764,35.586659393416774,0.050109842966885365,1866.8444649094286,174.3131377926536,0.7641829843450271,733.8644776878351,0
100,45.169066666666666,-16.780533333333334,-4.566,63.06427007110476,3.0941623096986377,0.5502656325,0.09718001992868242,0.00023773313429037,21.08937879584908,1.4794609502940692,84.79681179196275,747.4609375,249.61666844152674,170.44941010108712,64.41102756892232,2.392242554195754,3,15,-5.730472377086059,-3.120239744966767,-3.708125909643699,-0.6167835496461915,-23.21973568344822,0.1504069545153886,0.06105716600027625,0.049063634704880905,0.0297160014959267,-0.008522908739941215,48.401231786896595,-1.7520556449501972,5347.64904001698,0.4974896143329762,6.802288219342337,2.702788872464822,46.660771274687846,0.06568610000106198,1788.3120845610244,161.4923687038454,0.6828446640413971,984.0466803183657,0
101,34.32593333333333,-17.860266666666668,35.45786666666667,63.131998303410114,7.636337923696684,0.5618503583333334,0.026098768485982835,-1.804816405428157e-05,21.400509535941328,1.4769697001158884,86.29803746432452,733.3000614250615,220.32360857470943,161.17855393463674,60.8374384236453,2.593529881596056,3,15,1.5012256723617696,-1.6190140726049975,-2.1146233523621296,-0.3200335000665415,-9.270856166450386,-16.24529592494928,-0.4203717474845661,0.12095827993590062,0.029602661782701135,0.06772823230535607,52.48351296512077,1.0783259612662008,5448.167554785358,0.5354188558106955,9.750961276058813,2.5530405454137197,48.486583272794164,0.017670483344333354,1846.8219736882988,147.4465336443305,0.7315537130919076,1037.6375876946447,0
102,48.078066666666665,-14.817866666666667,21.6342,63.191828231642674,6.024929715432473,0.4899020300000001,0.08252123390582027,-0.0002263577970748601,23.05005154048791,1.473266842152591,83.12203874698194,772.0682989690722,253.71836058969606,184.34240627562596,69.25064599483201,1.3723530285885577,4,15,-3.17599871734258,-4.795012789947577,-0.8373865224903885,-0.9478390287007432,23.163852340989223,6.9464980872694255,0.7825104960132889,0.09534349430984732,0.06377908026896817,0.05982992823255984,54.76411486179207,3.1814415374477423,5252.63359476323,0.45091110599797657,6.862316237922861,2.9171873724351434,40.72165551988512,0.056012415093282385,1915.9672772683668,169.10380428671803,0.726563130264497,938.636258547346,0
103,41.72866666666667,-0.12653333333333333,32.15026666666667,63.197338809980224,3.8752850221930517,0.34446722083333337,0.022595584954449237,-6.831438740582938e-06,25.27522388059702,1.7449552256954866,76.23241468611978,809.4172297297297,137.69387661961076,123.60015716048207,34.68834688346884,4.975938939933143,4,15,-6.889624060862161,-11.684636850809738,-5.032811389102376,-2.309723733503012,-60.74224911514389,-18.78919838707732,-2.37179094811384,0.06132038302823379,0.03267025328505514,0.005510578337549532,52.67767344141159,0.09708023814541374,4817.685739221624,0.6167663198872274,8.908096411295428,1.9557810112279908,26.259568024341867,0.012949091542130153,1926.7913481501898,98.66079355452057,0.8976445445133076,663.7164608230075,0
104,51.237,-15.291866666666667,-10.2746,63.07763910463682,1.3898123321239195,0.9678781633333333,0.2628331328880043,0.0007439204843128353,24.401975398008407,1.8395109799530156,94.14732011511991,686.4965596330276,249.2985849995115,188.8987063131053,80.0,3.060150621003702,2,15,17.91490542900013,6.23026857819039,5.512640684068978,1.2315486895210765,65.29854915262322,2.2781500187396797,1.0191158900752355,0.02203336002824105,-0.05709456350291316,-0.11969970534340035,54.448496400829214,-0.15780923048143305,5938.590680890248,0.4984010820098832,-4.122828351945058,2.994701545583336,91.12313527577764,0.14288206798021805,2297.380589237578,172.73243043753894,0.757720732002853,2223.5845051889182,0
105,30.237924281984334,-5.747062663185378,34.80842036553525,63.359442307665276,4.994102262349666,1.4296476475000002,0.0730455167193482,0.00012891249044964364,22.86489274321407,1.5438861100370194,89.3914340799337,710.4735748218527,228.05593581099998,168.17071242156703,73.09523809523809,4.841334826268775,2,15,-4.755886035186208,1.4743825430041824,6.579509696906954,0.2914439186531751,-20.72799389153826,22.285277630542492,-0.05727397066234978,0.07882175221964471,0.08105174884253308,0.28180320302845274,46.464899897464605,-3.1063867719734843,5663.7914103870235,0.5315517325293675,-1.585407434557288,2.6542327969163457,127.79825343902856,0.04731276241457779,2043.9255523997751,156.44062877593504,0.7374099333285389,2922.0933576534767,0
106,29.597666666666665,37.3258,24.879466666666666,63.52313935606334,2.2381762702753396,0.2806843333333333,0.00475431507253031,7.342638349053957e-06,20.241060436886258,1.3944169694740387,82.40592363602927,801.8599195710456,283.76937793537667,234.408558327732,80.3763440860215,1.697092160895515,1,16,-0.6122846036178231,-11.690671690030129,-0.6122846036178359,-0.6359043081534015,12.73910341148536,12.739103411485308,1.1083538049170014,0.03523403114146788,0.36450480168588384,0.3645048016858894,53.74220947606164,-0.7861633503242055,5234.682970896602,0.35154827055959015,2.8504608738931756,3.6901286210633244,23.13005173849645,0.003409536154973497,1667.9832806743023,199.51809344971005,0.8260530436131636,468.1767751472127,1
107,29.167,24.57806666666667,36.708466666666666,63.414202526777,3.133802465521765,0.29306799666666666,0.007799996848182412,1.2398850860312519e-05,19.684643969066993,1.3876135857421035,79.23678015747704,826.8301104972376,280.63977544405225,223.31391376165033,78.393351800554,3.334203288665359,1,16,-3.169143478552229,-14.859815168582358,-1.8907140410850205,-0.8082872169033114,-11.094644566081683,0.8222294227018884,0.8270137188480826,0.04941799061808748,0.12778398619978099,-0.10893682928634263,52.93681870956063,-0.7957770584125876,5024.7372244759545,0.3548224043362853,5.024516506606785,3.5215125530569,23.22176442306888,0.005621159181726324,1559.7478066551676,194.1156803354189,0.7957315152789869,457.1121650016573,1
108,31.969333333333335,15.737333333333334,36.2452,63.25195763175891,3.7487939060683733,1.3455345666666667,0.28486846654446013,0.0007873397489789915,22.594202550493527,1.7155426670172256,116.84473873139079,543.8407441016334,202.26763990665702,154.10882828578292,46.727272727272734,2.2939015275276238,2,16,37.31709514334857,22.74814340533139,17.65884385285557,1.237366233308733,-35.48770266420556,-38.013863314009036,-0.9279018702201071,0.0592676344958863,0.1447023442761921,0.4215334201722243,50.827319988980555,3.1569162015032473,7390.65846373187,0.7581962647624249,-13.910049946787195,2.436427766339628,157.2186348962218,0.16605151945288213,2640.0136938565397,134.36791363990423,0.7619055047900962,3552.2296815573254,0
109,17.605333333333334,43.28346666666667,16.2966,63.658617661182355,2.104803427258995,2.34077126,0.11741548852136474,0.0002281110901396438,23.277814408164428,1.7743815074668725,112.9516597647039,564.8290094339623,202.7941448996409,159.01623356434547,53.68620037807183,2.7747125063405944,2,16,-3.893078966686886,18.855064438644504,16.712008088330858,1.0256054592029293,4.90740527856255,-15.290148692821484,-0.8034589630839246,0.03306391977377885,0.41409672479784104,0.4066600294234419,49.48722481633237,-3.8718316530008123,7190.34652315724,0.7103152711052175,-14.607204661071863,2.4979529387952324,264.39399894651723,0.06617262861862692,2629.267773096911,138.49885961401938,0.7841263545505206,6154.51443810945,0
110,42.63733333333333,-12.9914,39.73466666666667,62.660653685135145,0.6720216401957425,1.7430172074999997,0.16800645920766294,-0.0003790881637591451,23.269698286773245,1.8759736347286107,124.54825892604175,500.10434056761267,139.96442303570961,123.58992684973188,26.755852842809364,7.7165892812547074,2,16,11.59659916133785,30.451663599982354,3.8517600973254926,1.6563927708431774,-35.42630671461359,-15.259450718025496,-1.7018059196564428,0.010724778639760102,-0.2956519733118638,-0.9979639760472097,59.7123304087932,4.442505209906329,7804.275319651245,1.007754119554751,-3.17973845712975,1.9723689047100057,217.0897584722562,0.08955694051210253,2898.2004073519042,96.77006757608363,0.8830095832153,5051.613180797877,0
111,47.317708333333336,39.927083333333336,3.8177083333333335,66.22523874376907,14.314511983675473,0.5406659,0.027707550768608185,-6.0411536264956284e-05,23.648761493937503,1.6288692469169375,86.8090938655228,738.0015432098766,218.92673200216674,180.46569397773484,71.78217821782177,3.484461126813742,4,16,-37.73916506051896,-7.287501460536603,-13.071282949590543,-0.39639754646274633,56.87576712800296,10.724730206694721,-0.2595395069092159,0.21614889210229207,1.2833105412933588,3.5645850586339236,62.02993150361969,6.2713533436436695,5748.952966374506,0.4810282301920759,27.385794933266016,2.725028926674657,46.934716862987365,0.017010297678006995,2052.927556330582,157.0582013992411,0.8243200468362574,1109.9479248782748,1
112,-37.083333333333336,-36.55233333333333,-10.843333333333334,64.51008639181026,2.3415423096421466,1.492905415,0.07632121050042015,-0.0002174048234408531,19.44871439892302,1.800823087315408,71.62804825964668,882.3285398230089,226.88825158537935,179.18917123466096,76.92307692307692,2.84803020275039,1,17,-14.186832381123779,-14.402437710018077,-14.186832381123777,-1.3911176079488234,-38.303629607305595,-38.303629607305645,-1.0087845593203437,0.03629730543872612,-0.3053310453430396,-0.30533104534302424,53.18669533821405,2.8041304732398475,4620.731581306562,0.3997342437959625,16.528374690765922,2.7776922723159965,106.93390111270786,0.04238129277551446,1393.0734535541433,161.00016658103905,0.7897683991241435,2079.7269023037315,1
113,-54.139066666666665,-21.325533333333333,-2.325,65.10156518697272,3.7277620908986915,1.2621634666666668,0.04659745556646724,-0.00011609652963648097,19.400739075774315,2.1012772572638267,75.31519754667654,861.7164985590778,231.51707696708766,211.84854606419236,79.76878612716764,2.910869506378718,1,17,3.687149287029868,-10.715288422988209,-5.24984154704695,-1.0349794041532687,32.6593748295314,-2.822127388887093,0.4880250355324244,0.05726071378149665,0.14307387490972823,0.5914787951624589,58.234204180094096,3.925819657559961,4903.137242654691,0.35551434546235167,8.977603637945641,3.2541236482047147,95.0600908281981,0.022175776854475648,1461.1704960434695,174.37813638614924,0.9150450102404698,1844.2360186772785,1
114,-41.62833333333333,11.617333333333333,21.689133333333334,64.51925388175992,3.8337464541019775,1.1291522200000002,0.038203992247057984,-0.00010270405866948736,19.869828253576856,1.9866515789125172,73.91855558608844,861.6199712643678,222.78152521945503,193.6673096435434,78.38616714697405,4.569556214091405,1,17,-1.3966419605880986,-12.111930383576308,1.1452536632208867,-1.1698797080110546,-18.181236420648958,7.239069204441235,-0.34523797892388824,0.05942019201164083,0.004583744974834087,-0.582311305212798,48.35596214160152,-2.415366598306262,4769.170054431824,0.38167801959175285,2.6884927908810905,3.0016978652103843,83.46530113922518,0.019230343484774846,1468.7490042480515,164.94500066999083,0.8693149463483019,1658.4411987694768,1
115,-53.5632,1.6698666666666666,27.780266666666666,64.71208818230188,3.1762099667136243,1.0455570283333333,0.02928120935800857,-7.157430699604835e-05,20.287914295279545,1.7708669592780488,91.38767307954596,719.7641225961538,282.034339731265,217.5005736489713,83.85542168674701,2.558747115086575,3,17,-2.1381698838071515,5.35718710988121,8.73455874672878,0.517445551071428,15.692925275754106,11.916632002713989,0.7470627287959188,0.04908217391727264,0.0964171502709745,-0.052461171439205145,60.36180965640076,6.002923757399624,5913.887159098954,0.420172099439454,-5.558348780015155,3.361050097397498,95.55102389134824,0.016534957188396582,1854.0652790828542,194.46344502232776,0.7711847211804621,1938.5309835338812,0
116,-49.39593333333333,11.6702,20.2408,64.83607945255291,4.097121089527175,1.0112167983333331,0.0070521479776966284,-1.5774035572248535e-05,20.002667022269634,1.6353845671783909,89.3261719430943,728.2162408759124,267.4858598382625,197.18821934810603,82.19512195121953,2.7653219560455513,3,17,-2.0615011364516675,3.295685973429542,-2.099835510129401,0.3183271387953144,-20.31235430086528,-2.3097145125555745,-0.18387140482663447,0.06319199316370526,0.035765049405912575,0.1239912702510253,54.64285664705965,3.98218160663209,5791.558781294864,0.45299953407664223,6.196956599656575,3.0413346700130726,90.32812559966862,0.004312226077725586,1786.7616737517192,182.28973371252937,0.7371911900963194,1806.803419115921,0
117,-53.75833333333333,5.682533333333334,11.541333333333334,65.19951899469754,6.224820441325159,0.9847585241666666,0.05217046838123796,-8.443091109786984e-06,22.334432009811444,1.5155211688558008,90.15926481948588,731.2041564792177,277.3744934286125,221.59152058173643,85.78431372549018,2.7732864731527926,3,17,0.8330928763915892,4.128778849821131,-0.614204130030031,0.3987947785615285,24.4033012336304,2.0454734663825977,0.9345546404738925,0.09547341049910817,0.24371540619784268,0.3634395421446328,55.27614280115186,-2.542833427624449,5878.340699146036,0.40687145508060274,6.83902457135519,3.398667974852541,88.78510456358859,0.03442411063160932,2013.6559701653923,194.91677591194636,0.798889320509087,1982.964881359469,0
118,-53.35986666666667,1.7899333333333334,4.692933333333333,64.99632000002603,4.365537743228294,0.9475963766666666,0.0346124036953487,-3.1649895312428594e-05,23.355592734454767,1.4605831365633248,85.25599412446326,780.6803385416666,262.82286963442135,238.50459347950286,80.93994778067885,1.9634929932040779,4,17,-4.903270695022627,-0.7744918452014957,-2.0350889093155087,-0.07480742251869964,16.913072897766426,20.658187065698428,1.7096965384421925,0.06716592175105522,0.08012027373655733,-0.20319899467151004,53.59573542077143,-0.5235606131441015,5541.325876033953,0.3574605944615888,6.400626652543803,3.66950913236162,80.788271121456,0.023697660769102034,1991.2042769420323,194.08913696486766,0.907472754601818,1886.8579580334397,1
119,-39.443866666666665,-14.471133333333333,25.4348,64.42404721324941,5.1945427131119795,0.93153091,0.03180498080728709,1.0632969759004874e-05,23.477139171563707,1.4715933783946766,73.96592203717965,867.1420784883721,223.88610633872761,199.64667243060433,77.25947521865888,2.3011223306898185,4,17,-11.290072087283605,-12.0645639324851,-8.096671391153102,-1.1653046280512784,-38.85792104889853,-10.97242407556602,-0.07119820818444357,0.0806304933919717,-0.3877358907240535,-0.5722727867766224,49.11375946319818,-3.0811916689768393,4765.184053494787,0.370484119600869,13.29121410426508,3.098946402277545,68.90154266428301,0.021612614784922667,1736.5082456198977,166.93075132933026,0.8917331928071931,1617.6111062648067,1
120,-42.9904,-3.079466666666667,31.656466666666667,64.40805930278492,3.353937514167804,1.0631351491666665,0.0605224842415493,-0.0001113511508723283,21.807272937058904,1.6910563362728719,101.70830359101639,628.3810399159664,221.45415053566654,164.98171888006976,75.57894736842107,5.122733139832074,2,17,27.742381553836736,15.677817621351636,8.226154733276578,1.5143053270837736,-34.66495355053456,-36.76143729971655,-1.6599253455039344,0.05207325838527142,-0.2941303486205468,-0.015987910464488664,53.476999625342565,-0.05936789771442892,6550.834449275836,0.6164822603677017,-4.872217219108775,2.5615073347106554,108.12967250972382,0.03578975043193551,2217.9807363745426,154.00493892805244,0.74499266995449,2358.0132810143423,0
121,-39.25391949152542,1.2819915254237289,43.369597457627115,64.30991659573284,5.7127652474015145,1.0294227983333333,0.031873318648926355,-5.65360887403408e-05,23.18715345286959,1.7438070202324443,100.3599770446563,637.8931236673774,226.45886223784152,170.98325666136517,75.64102564102562,1.6012747030169476,2,17,-1.3483265463600844,14.329491074991552,13.197027503738326,1.384071762622554,6.001537781295411,-14.331707884619545,-1.3848692741062796,0.08883179375450431,-0.057065308758265786,-0.09814270705207662,58.51013315106225,4.698186843932043,6454.141753291509,0.5869579186719012,-7.4842622563368115,2.65873854381537,103.31284840997918,0.018278007990057143,2327.0621882609153,157.69438151341078,0.7550300967324814,2395.5308697352416,0
