,ACC_x_mean,ACC_y_mean,ACC_z_mean,net_acc_mean,net_acc_std,EDA_mean,EDA_std,EDA_slope,RESP_rate,RESP_regularity,HR,IBI,RMSSD,SDNN,pNN50,lf/hf,label,subject,focus_label
0,37.45433333333333,-15.889083333333334,-6.054666666666667,63.23048961640127,6.049732738188066,0.7208563822916666,0.1469279629304594,-0.0003557645800193,21.842570895700828,1.507625242518766,85.47157397548224,761.359126984127,225.53664219044637,203.257589195355,78.66242038216559,1.5264151987036707,1,8,1
1,48.156333333333336,-25.041416666666667,12.412916666666666,62.830391899005704,1.810254259496502,0.4395137916666666,0.0487507594576776,-0.0001715971899247,21.26278298262646,1.444130252511005,73.14314773157564,851.423487544484,154.18840841703562,143.10907690078832,50.35714285714285,3.4322148450068535,1,8,1
2,44.21191666666667,-32.373333333333335,-3.808666666666667,62.84063672341662,2.491410483156656,0.3225472593749999,0.020619419905163,-6.922058530201321e-05,19.78108456145371,1.5524725744125332,77.28779226038134,816.8195392491467,233.83570946220297,171.0917410908475,67.1232876712329,2.137051667885935,1,8,1
3,37.84141666666667,-27.75658333333333,-0.62275,63.191721886466006,4.9199629087558385,0.282911609375,0.0087072250569399,-1.915847382511261e-05,18.25510708352932,2.2168289617304406,82.60608541283415,771.3709677419355,204.95850673294984,170.08802863147332,64.07766990291263,8.726061506641118,1,8,1
4,30.61475,3.3164166666666666,47.364,63.10685378335944,3.90461336955312,0.2539818708333333,0.0062779850628989,-1.5798217500236043e-05,18.619140332484644,1.8005446772811726,79.83243353933639,790.7181291390729,218.58308178362427,158.4441076622102,71.42857142857143,2.561602163824693,1,8,1
5,41.2555,6.47275,34.563,63.31338156718712,3.3133514545101623,0.2345439281249999,0.0149329627102692,-6.098235444592683e-07,20.53355866731048,1.379136770002677,88.42771016084275,737.8365384615385,273.3727326293097,203.85786659020553,77.16049382716051,1.8529879185630465,1,8,1
6,27.128083333333333,19.630166666666668,48.53183333333333,63.18789268409073,4.018080156471952,0.254092509375,0.0242645710383454,-6.773798606416682e-05,21.351930047010132,1.4754792893357696,88.27189240723989,745.4731308411215,243.55398268242044,217.91405428498055,81.5625,5.000016026439087,3,8,0
7,20.141083333333334,18.080416666666668,17.3595,63.7920001020472,6.700004202516769,0.2508663635416666,0.0078018821550024,2.218459274993818e-05,21.32641967048591,1.4666641134873324,75.4086762296867,844.8542402826855,212.08256480722963,187.4507319243676,78.36879432624113,2.3729452261891204,3,8,0
8,33.49325,-8.23,11.420916666666669,64.77200736865095,11.603199046043066,0.2536981083333333,0.019014913798087,-1.7262534545936098e-05,22.001833486123843,1.5594314028164815,85.58701497762029,758.6805555555555,237.51872516695673,201.2288978606581,79.93630573248409,5.397091785114243,3,8,0
9,45.86,17.300833333333333,6.559083333333334,64.40114151295595,12.827953402428935,0.2473577760416666,0.0152397069755584,-3.920300335341262e-06,23.479625143516653,1.5963632288328164,84.68984918036173,781.4031862745098,256.54065633035594,225.8190673901465,80.65573770491802,2.713127060783121,4,8,0
10,9.815333333333331,36.86208333333333,8.043666666666667,63.75823059308093,4.66121747038115,0.2597838114583333,0.0077599916285979,2.7323489127321124e-05,24.65925770601803,1.5869588848005023,71.85630754438361,872.4908759124088,197.64914081273153,172.97295270234747,66.30036630036628,6.842855083172977,4,8,0
11,35.30375,-13.976583333333334,-5.13325,63.15267923221931,4.239067011236026,0.2556821927083333,0.0213880646194551,-4.99869656501906e-05,23.348117685033536,1.6142124253748844,86.02123876630779,757.2191455696203,261.04685654020784,207.774025626928,70.4761904761905,3.369013400476525,4,8,0
12,48.471833333333336,13.956333333333331,36.179916666666664,63.229887146441186,3.3774923806939237,0.43878449375,0.1088528736240169,0.0003602309904171,23.472288157491484,1.6603614985363018,96.15113422100944,670.5182072829132,234.80473244188835,183.50059586034013,75.84269662921348,2.3445651645075416,2,8,0
13,32.71918402777778,-8.516782407407407,26.92925347222222,63.39683068512743,5.254199846382878,0.7940351885416667,0.0614573522859117,0.00014656422356,23.852366405825,1.715367437384294,95.92731542064372,676.2888418079096,258.76274841663417,196.2587449267944,77.62039660056656,2.7141445624449276,2,8,0
14,35.180166666666665,15.932833333333331,36.305083333333336,63.28152235284667,3.274601050433673,0.3944213895833333,0.0378057835559242,-0.0001229859977875,23.16074661040315,1.5111180752506848,91.445796226989,701.842008797654,230.073892182426,178.44895186124862,57.941176470588246,3.4096653995100463,1,9,1
15,28.387083333333333,29.270833333333332,35.818333333333335,63.38435694276031,2.368869973796083,0.2965392333333333,0.0170085919426811,-5.8860624306233035e-05,24.252021001750148,1.6092165464650356,84.40859382845252,751.621462264151,209.79846766058313,161.72022279587654,48.58044164037854,2.1919861223798045,1,9,1
16,33.434916666666666,21.4095,43.761,63.23816023206538,1.9566571315106889,0.252740825,0.0102303062873971,-2.617765203467016e-05,24.009146341463417,1.65782309121415,84.79841766707413,750.8816614420062,232.2641449062702,169.57527504747767,53.1446540880503,1.5482772499964632,1,9,1
17,39.84883333333333,15.859166666666669,35.311,63.2457582061495,2.5663012805605145,0.22712540625,0.0103009706282932,-2.965761513413105e-05,24.173241564545908,1.6768854366242458,88.0620106904643,728.2959726443769,251.1406903340504,178.17781831666755,58.84146341463414,2.697051349003153,1,9,1
18,34.76858333333333,-20.1155,13.28,63.41114282649619,6.274143933985435,0.2148026989583333,0.0032433924051444,5.424849114148345e-06,24.39783928806698,1.6877714733224858,83.70219037458583,763.6345541401274,257.4563840468937,179.39822944939644,57.1884984025559,3.510861049992587,1,9,1
19,59.98616666666667,-12.549083333333334,2.2616666666666667,63.02046687422208,3.718333626112408,0.4160248114583333,0.10708370721024,0.0003524489816137,23.03249226587507,1.5953371398468692,88.11682768878067,717.4401197604791,225.55507940155957,158.16947100048256,57.95795795795795,3.8625862684607943,1,9,1
20,37.027,14.486166666666668,33.58733333333333,63.21594945589664,3.2245518121934653,0.83700210625,0.1199940926808185,0.0003378732256789,23.59367249735557,1.5582990048879028,94.49018200331308,672.9283707865169,215.11376678039625,160.04944717149712,61.40845070422533,2.42534578109531,2,9,0
21,32.2945,42.69133333333333,10.723083333333332,63.58500713734937,1.3179342459176764,1.0074441281249995,0.047724220167337,0.0001512097766694,22.500803600128577,1.5109181514043208,97.33446719092828,663.305055401662,256.4449736738262,183.21180167572624,75.27777777777779,4.3969061265424605,2,9,0
22,38.590833333333336,7.34,38.601166666666664,63.05440130588608,1.9036305549147727,1.13534558125,0.0283960691606922,-4.855550909344003e-06,22.506954396021243,1.535263715165965,86.95362093247289,729.7065548780488,216.11287215058317,165.13586054512416,71.55963302752295,2.2741618098024303,2,9,0
23,34.85908333333333,6.483333333333333,47.89825,63.27223572600644,3.656070691239331,1.152112075,0.0456813612698809,-0.0001053423616317,24.251154816896044,1.7169308796872815,92.98664785853772,695.5850290697674,255.95500735284347,188.98150350652404,71.72011661807582,3.5975711333180938,2,9,0
24,-30.590583333333335,-9.481,-55.809666666666665,64.66304665336284,0.8752033125828461,0.1863730010416667,0.0215397479430712,-7.540486961384504e-05,21.5014078302746,1.9089654671571343,75.08640432949969,862.1389891696751,289.03036689789263,219.249711532126,80.79710144927535,5.356274402914245,1,4,1
25,-19.386333333333333,-9.913416666666668,-59.84941666666667,64.41712920071882,0.6458577278054648,0.1398484041666666,0.0086139117820379,-3.0133247879500747e-05,19.663629488241437,1.8636924384174791,66.24337092798865,965.5367943548388,341.34782441713566,223.73468161319673,85.02024291497976,2.5609572725796927,1,4,1
26,-36.995333333333335,-4.487,-41.27525,64.78754352721512,2.0373071383257866,0.1230007197916666,0.0036694161938617,-8.933154515955416e-06,19.569541764484505,1.5249229750148074,68.08531295247876,950.4482071713148,296.4174105041739,233.5489957122063,80.39999999999999,2.3676567613976625,1,4,1
27,-50.141416666666665,-13.133,30.302333333333333,64.39918027736772,1.9110196937131687,0.1206927802083333,0.002221725573415,-2.055771687306591e-06,19.623229207223936,1.7140907746809706,64.27588923077197,992.673755186722,294.1867044196452,217.08580944012937,78.33333333333334,4.994891917563906,1,4,1
28,-46.21508333333333,13.600416666666666,39.28625,64.3631235535144,1.620363056552606,0.1144474520833333,0.0057925375798841,1.6062707397685977e-05,20.36065043959135,1.883926239287941,70.12359549658247,923.5707364341084,297.64517137409626,230.05334360179307,80.54474708171206,3.5948864531344147,1,4,1
29,-51.04325,-20.63125,10.372916666666669,64.73846735230703,3.8122733647536577,0.1938815177083333,0.0469743159857031,9.134912164211323e-05,21.85733512786003,1.6038894459912871,81.17754961714739,827.9628027681661,332.0159310191619,262.96238403999763,84.02777777777779,3.2643387162028223,1,4,1
30,-63.431666666666665,-2.15125,-4.7695,65.23864388028588,1.561813474107683,0.1695518135416666,0.0077832962609054,-1.0928709117251656e-05,22.291797119599252,1.770457053072211,76.48808691649884,861.4545863309353,297.6251684893623,241.5931286023434,76.17328519855594,1.9461567665185693,3,4,0
31,-44.92333333333333,9.99475,10.67075,64.73877854581093,3.4469869543005656,0.176061015625,0.0064828555615598,-7.488512974460696e-06,21.500511916950405,1.6282125904738471,67.90404217987648,929.6571011673152,218.9090695359552,177.93431599339254,56.25,2.3142630698847,3,4,0
32,-36.9135,37.79666666666667,8.12725,65.03129693416005,4.439163103683461,0.14123281875,0.024236006998637,-8.242691175880181e-05,21.64105329378988,1.9986525378967277,77.48808548728736,847.3387809187279,315.39000538453007,235.3283589358712,72.69503546099291,1.017242560110465,3,4,0
33,-30.563,26.806083333333333,27.14025,64.47890858617333,3.5317154758799716,0.1543323854166666,0.0041570931855729,4.9056816603532765e-06,22.677777577797375,1.6135573225240092,71.51804895792881,914.3318965517242,335.5403511107981,246.68383329971465,85.0,1.2498191046575808,4,4,1
34,-47.87166666666667,-26.686583333333335,-3.0108333333333333,64.83481375386353,3.6060378305228378,0.1556341260416666,0.00413970922461,-1.101177252118334e-05,23.941101290659372,1.6668185478616395,71.90915138553521,904.3632075471698,288.60625080594036,240.0706058486582,75.37878787878788,1.2499087962191977,4,4,1
35,-56.397333333333336,-5.482333333333333,13.005916666666666,64.96974458425257,2.866101648054806,2.25528248125,0.4594033351215053,0.0013872503110083,22.22476112591025,1.6622461791462255,97.6596997170534,669.6866246498599,279.08739602952716,208.8158538120199,82.58426966292132,2.370811433910377,2,4,0
36,-50.69108333333333,-7.78275,26.355083333333333,64.62618580756249,3.0793166936417986,2.51195566875,0.1957252657566708,6.048394467116362e-05,22.660240270484135,1.6722074019885165,93.79589783136088,686.1568767908309,240.5306927261445,184.3990175828433,82.75862068965516,4.595738740884904,2,4,0
37,-34.282552083333336,-1.87890625,12.232421875,65.18738349966962,7.994151909906878,2.11739835,0.1402993488236566,-0.0002121999502495,23.000821457909208,1.5642622411958198,93.44516574068786,708.2715133531158,300.3993207492687,230.99604228486385,81.54761904761905,5.663428806113955,2,4,0
38,-49.4005,-0.5535,23.9585,64.73765403591042,4.566433684335989,5.006511489583333,0.4404761801432247,-0.0014686576680584,22.755959894258023,1.5303790700550135,85.92596176332015,739.6962074303406,208.9865858165117,165.99027892177818,77.32919254658384,1.354441733385775,1,11,1
39,-42.995583333333336,-2.33675,7.523333333333333,64.53060919166771,2.7162432424677485,3.63912308125,0.50758654374372,-0.0017238652178713,21.845574387947273,1.491866624816748,81.19339564832642,766.6266025641025,196.8982052623399,137.00810139986106,56.27009646302251,2.6575249229489635,1,11,1
40,-50.839666666666666,-12.891916666666669,21.016083333333334,64.60955326506061,3.112923634778501,3.072470607291667,0.0992987026401011,-0.0002603065221628,18.52176276920289,2.1762830679548397,79.36559412836587,792.6841887417219,228.37701684969556,159.2765520648588,65.11627906976743,3.1325271357030924,1,11,1
41,-51.81375,-15.764083333333334,22.684416666666667,64.5830826560531,2.894336649633935,2.75858008125,0.0808546921369959,-0.0002673862957072,18.61144711786052,1.7651422894625215,85.3702501173695,751.1792452830189,240.0726997663567,183.28888711967448,75.0788643533123,2.693961718107914,1,11,1
42,-45.446666666666665,11.22275,13.404416666666666,64.86046351075753,4.0806380019581505,2.453901991666667,0.0795807428698463,-8.65482275507036e-05,19.521496886452343,1.623716278561783,77.36447210159935,806.5350506756756,211.14582854277973,149.59392806279791,68.13559322033898,3.686548358960253,1,11,1
43,-38.68,2.97625,-39.699416666666664,66.16286469174517,13.555380325974644,2.3456887114583336,0.0544207828606088,-4.194781364373378e-05,21.171895628795703,1.9110157062248785,86.33788396609552,737.6543209876543,240.93941803635963,181.51232296448873,70.58823529411768,3.096920623099592,1,11,1
44,-45.89,-9.656333333333333,27.212583333333335,64.46318456686095,3.1815225127006603,2.838958390625,0.1560242009235951,-3.586529364316819e-05,21.37378986630904,2.0852527701758583,109.6701204221921,580.4763349514564,218.50274956233773,158.22228736524988,67.63990267639905,1.6523956667135733,2,11,0
45,-32.540166666666664,-11.172083333333331,27.932416666666665,64.09293339428002,3.866422409633784,3.0716861812500005,0.1030687764511541,-2.5152508100052252e-05,23.750424114716335,1.687006038971036,103.47895282190136,630.9779023746702,283.4118304252665,202.6559384393067,80.68783068783068,2.0663276903400165,2,11,0
46,-50.91141666666667,8.858083333333333,10.515166666666667,64.88469386567209,3.5006668828496297,3.133271373958333,0.2575539028757515,0.0007539900620755,21.806593301663845,1.6243842965237305,107.33427921803352,596.3930348258707,229.61447523994045,164.0550917697038,76.80798004987533,5.107850265816589,2,11,0
47,-48.738166666666665,9.153583333333334,3.8480833333333337,64.88110554359947,2.734710851316044,4.596600372916667,0.5740519885755253,0.0020101383997134,22.8680152932096,1.5195363711657186,106.65043885070536,607.2335025380711,265.7769734389512,187.2132546324305,77.86259541984734,4.014659829754818,2,11,0
48,33.613,-4.702416666666666,43.404,62.99160369340799,2.9613252887790176,0.3758734291666666,0.0280293863702897,3.150570248014606e-05,20.7577841690634,1.5754430091855318,96.80173136115444,648.0152027027027,197.1546761717361,147.46465012828978,39.295392953929536,4.558485509237545,1,10,1
49,38.398,17.884416666666667,34.73325,63.35357328288857,2.785214346569055,0.3818269062499999,0.0080807495228863,-1.1160026540827104e-05,18.88874230958349,2.31890539892579,100.46920191143369,611.766581632653,130.49148666878887,104.1564843220285,27.109974424552423,2.12966823322663,1,10,1
50,21.77375,35.60775,23.289666666666665,63.67116839132239,1.9607351556332828,0.4021004635416667,0.0095289763307068,2.3133553659183818e-05,21.42227076070063,1.488287724751885,101.33207386935057,610.530931122449,155.1451506909848,116.2988590882008,35.29411764705883,2.9856484958143676,1,10,1
51,37.559416666666664,10.666666666666666,41.75208333333333,63.25393474124864,2.918688018589557,0.4220503302083333,0.0112133759851202,-7.225466112430858e-06,21.10312898151084,1.7063376455766397,97.34082310069904,644.4575471698113,203.17696840406117,142.74679431795903,49.72972972972973,4.0872807961322355,1,10,1
52,51.688,-7.235666666666667,-10.71675,63.12772685450763,2.613079699513792,0.406840159375,0.0171340006075461,2.4572722294349424e-05,19.899483021266896,1.8156319196481392,97.61798756926356,626.8406413612565,119.86029501683332,94.4620745584687,25.459317585301843,1.359463000470017,1,10,1
53,45.18625,1.9763333333333333,10.179833333333333,63.19098657293695,2.320840208251349,0.3888821822916667,0.0592153158547359,-5.688283736337576e-05,21.000375006696547,1.725013173040302,93.15945608466042,670.5182072829132,171.37551912943118,136.12094349559402,41.01123595505618,3.9751901001389456,1,10,1
54,61.82475,-1.8581666666666667,-12.819,63.17019593762003,0.353923536037063,0.4153639437499999,0.0131241669863018,2.773771035450333e-05,20.32294485564257,1.88859774571433,79.56974252879043,792.8911423841059,209.16267994528496,168.84120633764903,55.481727574750835,7.057574722467882,3,10,0
55,35.343333333333334,-10.478083333333334,30.216583333333332,63.04808411649871,3.5266257582714258,0.423345425,0.0068953348660676,-2.346446312333263e-05,20.12578616352201,1.6398914920785996,81.32888140237513,759.4246031746031,179.1186735207182,128.41140084473042,42.99363057324842,1.8117874010671904,3,10,0
56,50.912166666666664,-16.239583333333332,7.11325,63.06218763565595,6.019758351073664,0.4250403364583333,0.0242567845391226,6.970508383391276e-05,21.075394715619566,1.5781227765243595,85.07286346436226,743.4006211180124,221.87424586331412,163.34010538379152,54.20560747663551,3.030233065517901,3,10,0
57,56.51208333333334,-22.47758333333333,-12.578416666666667,63.01228309993626,2.8871430861932956,0.4519283177083333,0.0069879985315672,-1.9020698284992103e-05,23.500559537131835,1.5899114914950063,81.98594960328559,763.827875399361,194.33650373178037,148.8038542392653,54.166666666666686,3.558975966482827,4,10,1
58,38.0185,-11.745,12.102083333333333,63.164801230831515,3.274950707447679,0.4487144145833334,0.0047502308449383,1.5567552278702237e-05,25.069388485988007,1.676017319171696,78.0812990504382,784.375,128.47253091870613,119.51597225036836,38.81578947368421,6.392675337688373,4,10,1
59,42.10191666666667,-3.608,29.772666666666662,63.12571185428046,2.7942058305876296,0.489822484375,0.0477249544695278,0.0001243155911695,21.473555046285433,1.577750114869665,91.86914970472372,678.6915722379604,167.51391908118416,132.95970081654423,36.363636363636374,1.868945762393753,4,10,1
60,60.0775,2.490083333333333,-4.696833333333333,63.155230049697686,2.5326535563374963,2.3426471958333335,0.330125903047981,0.000624717517909,23.751555161349852,1.7263647543443927,108.79943181069652,587.0863970588235,217.7922500492409,163.63117708051277,60.687960687960675,5.879979392631083,2,10,0
61,38.187627032520325,1.8532774390243905,28.8130081300813,63.08265989823161,4.4292681681632375,3.003154725,0.1031934160168893,-0.0001400894780701,23.30827067669173,1.8907119767634224,103.2828422432447,606.4477848101266,187.41240286708265,132.68070226300554,66.24365482233502,1.4228864799442371,2,10,0
62,47.84741666666667,15.172666666666666,7.7285,63.200806477744464,1.4237780360811283,1.124459908333333,0.1621488856468798,-0.0005043534366899,21.250632459299386,1.4125724523282717,100.30864457652808,659.6598756906077,257.9314995447629,218.15687592806808,76.45429362880886,3.896988351119412,1,5,1
63,40.961,17.270166666666668,16.505083333333335,63.23937518104267,1.775953277724065,0.8159284395833333,0.0523795011515169,-0.0001727721546193,19.867549668874172,1.336963146643241,84.22993132669443,793.3567880794702,286.34867149933694,245.38945086260424,79.06976744186048,5.637906375615871,1,5,1
64,53.797916666666666,10.0145,-17.382916666666667,63.24925890608792,2.2090528507314553,0.76904321875,0.0150145842064218,-1.1436310016607904e-06,21.750647340694663,1.2809366322259128,76.07604981992289,860.386690647482,230.44233714064163,212.99937878413988,49.81949458483754,5.997748738882459,1,5,1
65,35.522,7.4415,46.92225,63.172863104096166,2.2899309810103885,0.7503347125000001,0.0186783893391492,-2.625189240385491e-05,21.117023505258302,1.2442647936726612,92.19677561171795,733.6081288343559,313.0775912214094,252.00977342955193,78.46153846153847,1.374609406613626,1,5,1
66,63.013333333333335,2.025833333333334,1.9795833333333333,63.20307261579344,0.4047986199856556,0.7582108635416667,0.061109799828474,0.000115685573708,19.000791699654155,1.305899377056646,81.97998105838242,810.5932203389831,256.0923923186443,225.60316469442063,60.20408163265307,4.939933563165015,1,5,1
67,42.4155,14.09625,20.186166666666665,63.325187853632784,3.48274316721536,1.521943069791667,0.586891247384865,0.0019738464194636,22.902821805020405,1.3940987377436058,83.25554636924265,780.435667752443,230.18795380470584,202.80011548969173,59.80392156862746,1.1606407143419553,1,5,1
68,55.93416666666667,-0.1869166666666666,21.6425,62.916738718614496,1.930174175283156,1.7070727083333332,0.154113742113767,-0.0004463351625273,20.37430753106752,1.3065383509338828,90.13726300501536,736.448688271605,273.3784074803103,224.61898749874533,65.3250773993808,1.621659213958603,3,5,0
69,39.27316666666667,-15.596,29.45425,62.97591528599483,2.9276857569081307,1.316987048958333,0.1159437564295216,-0.0003985701432171,18.77727175183004,1.9709906691820744,103.41433545299496,637.4667553191489,251.91712840403164,204.6514579081066,68.53333333333332,1.7395259937746412,3,5,0
70,36.178916666666666,-34.17908333333333,33.70225,62.61514543638764,2.9118113457702908,1.27131635625,0.2923386830508162,0.0007524848749022,20.26797576421946,1.5387753289659851,92.6870006848657,713.0766369047619,275.16611121162487,215.79655870301684,74.92537313432834,1.9550599037198897,3,5,0
71,36.42641666666667,-14.341666666666669,36.85333333333333,62.94333179663558,3.4109479139936707,1.4252696197916668,0.1895637748718319,-0.0006765382382345,25.065947313765975,1.595609365268615,95.95787932437672,682.5587606837607,234.51186480036117,198.2746310091427,77.14285714285714,3.374169876246008,4,5,1
72,48.85516666666667,16.079583333333332,19.067083333333333,63.40403349426775,3.9296568965291527,1.059034015625,0.076662884585336,-3.126225275987774e-05,23.2768792534236,1.4361408528851294,103.85915449874804,629.5641447368421,277.2628085974252,193.54060787588196,79.68337730870712,1.526121687764219,4,5,1
73,56.21233333333333,13.608583333333334,9.70875,63.03133262062904,1.4955850809267048,2.977585490625001,0.4254390212430761,0.0014851415966095,24.51824123445794,1.7509264203096238,106.49292009400608,605.6660353535353,242.9331493058235,175.30525632814468,77.7215189873418,2.763789445797914,2,5,0
74,32.89740794573643,-6.595687984496124,30.660368217054263,63.77076460504037,8.357545638022632,3.647886064583333,0.1990253056708231,0.0003049113022312,23.644541333029892,1.7913783677507322,108.42071459655172,588.6440417690418,197.75185428810573,152.2395685470482,76.84729064039406,3.2817711195929555,2,5,0
75,49.721666666666664,-21.10625,22.112166666666667,63.002519954309,3.678074143746334,5.793684102083334,0.316885648369776,-0.0009644172231767,21.82196051264288,1.44725200963696,86.4812073738644,739.3092105263158,201.594433589112,176.8018979335957,62.42236024844719,2.473438283479773,1,7,1
76,58.50216666666667,-13.08125,13.157083333333333,62.95979455066313,1.4283219075620677,4.82456908125,0.1695436282254501,1.5569762621811553e-05,18.878893397181947,1.664527961785911,76.74567606161501,815.0510204081633,168.93871384569073,146.84198699407108,44.70989761092151,1.4136510218819949,1,7,1
77,56.58283333333333,-17.578833333333332,17.09625,62.88952725634832,0.7148040335333591,4.699102659375,0.0692542232308917,-5.8552318355111185e-05,20.001071485972464,1.5951512348411356,86.7374699037315,758.8508702531645,266.97979662430555,220.12944570216993,69.2063492063492,4.043081719441111,1,7,1
78,49.18541666666667,-14.94275,17.649583333333332,63.039415623944755,2.2788508342766174,4.468668789583333,0.2681477672755994,-0.000767950294461,19.52394006937078,1.4905255523587555,81.7411845341071,784.6311475409836,207.2619277188732,180.52186902938791,52.30263157894739,1.988081159230092,1,7,1
79,59.471916666666665,-15.197333333333331,7.643583333333333,62.79378715401798,0.6945945022490608,4.311025380208334,0.0936198120652544,-0.0001103343093294,19.50174122689526,1.476370498457825,82.35625218480591,778.807003257329,233.4472378230726,184.8097220247441,62.09150326797386,2.465683112531371,1,7,1
80,53.5225,-4.5056666666666665,15.078333333333331,63.06482450010839,1.5561418435329772,4.071812983333333,0.2420225094080906,0.0003634753916426,21.358444961620613,1.5909558411934603,86.43098044228363,766.9270833333334,285.39230294382844,230.83910196771745,74.27652733118973,2.3339977082880035,1,7,1
81,60.623,-11.4325,12.154666666666667,62.88572083038145,0.3544229723480792,4.578901975,0.0951372250537425,0.0002186135965181,20.77993299872435,1.5402337209256354,82.663166774754,806.0599662162163,298.7853898973336,249.39504676654676,82.03389830508472,1.535622130303912,3,7,0
82,43.30975,-10.569333333333333,31.251416666666668,63.043308155060046,3.3763338400509055,4.369580451041666,0.0817948746683185,-0.000273150813335,20.501098273121777,1.8462568590004171,79.2550678219049,843.9156360424029,307.57983993493,258.85809994306254,75.88652482269504,1.5976561903499094,3,7,0
83,53.97683333333333,-19.415416666666665,-2.3775,63.65387943326416,9.399905128712891,4.358060515625,0.1259629384417536,0.0002862611141817,20.163710122662568,1.5342593446713506,90.5975481306698,732.6974693251534,292.94591257142974,228.82494743274555,81.23076923076924,2.1222511683400853,3,7,0
84,55.47591666666667,-26.692333333333337,-4.721,62.95563956704107,2.655911024766973,4.335275201041666,0.0436711151064384,-0.0001361425294447,25.560859188544153,1.767611785440671,65.62927421816488,965.5367943548388,184.6688670581111,189.4443876247756,64.37246963562754,1.4618765410461916,4,7,1
85,46.413833333333336,-8.890333333333333,21.204333333333334,63.134535971605125,3.7924092144834303,4.34498819375,0.0297512840069544,9.125135119775475e-05,26.066407275678515,2.0121387881882056,69.32162262943037,918.0889423076924,217.78693821828296,208.27363215559748,60.23166023166024,4.1618493295071755,4,7,1
86,59.08375,-15.555166666666668,8.842666666666666,62.944343828818866,2.0888984240740225,6.163215958333333,0.1953731146850184,0.0003222053086537,20.38089874850977,1.9043776743309409,105.24387671771024,594.8356079404466,183.57534872587297,135.31435303914412,55.970149253731336,4.921163042222591,2,7,0
87,51.88498622589532,-7.120265151515151,19.40487258953168,62.9998007070089,2.379168227695066,6.568024815625,0.2375131799289567,0.0004183928893762,23.805120189009077,1.8609843163133923,107.40332894203829,601.0913944723618,225.29100400276045,169.2516545713167,79.09319899244333,4.3750786668039785,2,7,0
88,42.02433333333333,-15.318166666666666,18.964083333333335,63.29114492911316,5.746931664983813,8.706650107291667,0.7879649919505003,-0.0025335174200424,23.147288400596658,1.690136649669901,92.42028294589169,698.1907894736842,274.55293280602564,195.7877892709173,67.74193548387098,4.718752600778785,1,13,1
89,29.537166666666668,13.060166666666667,29.76575,63.30785555824229,3.326335513754465,6.768865479166666,0.6387881200948513,-0.0022543739189441,22.249110577357197,1.6009062257707796,91.74509111234472,699.3786549707602,267.55326923561535,184.28255558695375,64.80938416422286,3.276312672335713,1,13,1
90,33.93233333333333,-4.868416666666667,42.54416666666667,62.968610015866986,2.717671062323259,4.980857069791667,0.4802661423352077,-0.0016084435752358,22.52499261821403,1.4454846769787555,89.50459376650701,706.858407079646,236.91608186164692,168.2856427905809,60.05917159763314,2.129372245004092,1,13,1
91,30.11025,-4.868333333333333,44.14658333333333,63.05876596828717,2.496037103781848,3.856552455208333,0.2302102474716003,-0.0007803493189893,23.137031825394452,1.515560536121123,90.47995254232713,695.8607456140351,235.4843005402973,157.33604412793372,46.04105571847508,2.220911734893623,1,13,1
92,27.2295,-18.870333333333335,40.04783333333334,62.92729306095004,3.319179821578804,3.4457803083333336,0.123145491904481,-0.0004104553303416,23.543022070092373,1.7578371044816892,89.7474993477051,692.6630434782609,175.45492157763468,135.19438217312148,43.02325581395349,4.260751115514979,1,13,1
93,28.26875,-9.4725,49.3585,62.969496829647355,3.742577412385456,3.374470689583333,0.2433867125058552,0.0007851957349264,23.015754832176786,1.6962550430892551,89.31679094891061,712.6116071428571,258.20688683414716,177.47846089118528,63.28358208955224,2.245027762136086,1,13,1
94,50.122083333333336,-18.756666666666668,2.7636666666666665,63.12514087229206,2.7446626726462577,3.70560904375,0.1384140729558721,-0.0002609816351661,20.550887912927248,1.4659285025576982,89.59021054183677,713.2626488095239,259.5300516598265,183.47410837749925,68.65671641791046,2.3535899998900938,3,13,0
95,36.06016666666667,-16.98325,18.923583333333333,63.23213422464847,4.369710295054578,6.143825727083334,1.3555601255421688,0.0026975397976641,21.795274070140717,1.6982976379006702,88.17882771964958,712.5651041666666,226.22328891141055,161.55510740175723,56.11940298507464,2.7106654770352465,3,13,0
96,41.73283333333333,-11.11625,28.679666666666662,63.45809999589704,7.641899518056053,5.697674361458334,0.4576420894698917,0.0009270128490468,22.688530887613744,1.8047174919525313,89.16858451446024,716.6448353293413,265.19960195247415,188.237185126688,70.57057057057057,1.2990583313397968,3,13,0
97,55.36675,-18.7615,8.599666666666666,63.14192958816152,6.430044936363418,5.935999320833334,0.5250761782733085,-0.0018504522708493,21.34120825910738,1.4898462714576848,85.97103959486661,733.5122699386503,237.4003459956328,164.99902991367776,65.84615384615383,2.430343407880169,4,13,0
98,35.53058333333333,-11.140833333333331,34.20741666666667,63.187032481106094,5.926220793921644,4.531684254166667,0.300346828878472,-0.0010787996080996,24.8124742655615,1.6092717770763345,77.83797601097669,781.0464169381107,67.91423255893147,90.00187624371881,25.163398692810457,6.4766797607664275,4,13,0
99,38.282,5.403583333333334,24.74675,63.362603978189426,4.702171530594509,3.90066265625,0.0811481328345509,-0.0002718026713624,23.50055953713184,1.4518662204237165,83.72217345409548,744.3711180124224,185.97674345025345,141.4588030436164,53.271028037383175,7.1103824889102745,4,13,0
100,56.754666666666665,-18.236916666666666,-10.17,63.1234813833629,2.887446630543622,9.900258766666669,1.425474394483564,0.0049153760152056,22.75381337057414,1.6573241577530868,97.59392413807748,662.5086325966851,263.41475950735145,198.5732977913019,70.63711911357339,3.3655555781064,2,13,0
101,35.66398083623693,-8.098867595818815,31.287020905923345,63.124535843966584,4.286615656542485,13.852627258333332,0.8944459742632144,0.0031108999449733,24.750736629066346,1.7226601870170797,100.81131148181748,646.0304054054054,285.82362240253394,215.51009062215812,71.81571815718156,1.2312565292351128,2,13,0
102,50.894333333333336,2.1614166666666668,33.852666666666664,63.04114476305289,1.2177097206678609,3.0331707906250003,0.5117805921819967,-0.001757806904718,21.105653898384173,1.8052144625753728,86.13324260633895,760.3005573248407,309.54574023159677,222.12992886206447,80.19169329073482,2.4095411137356972,1,6,1
103,49.48258333333333,6.631083333333334,26.81925,63.25275658386651,2.7098034139273355,1.2954210499999996,0.4125232485848999,-0.0014584633822031,20.259514736385125,1.4340586750261488,78.16297846450203,831.4887152777778,314.5227977748544,217.6128615489993,74.21602787456446,5.870102634290377,1,6,1
104,46.05891666666667,6.333833333333334,37.4895,63.15949672435137,2.050176462319658,0.582290575,0.0713443816177662,-0.0002295835823253,21.267089625591993,1.3993083257954173,78.19573142556492,831.2717013888889,277.7775131265677,218.6265762074424,72.47386759581882,2.672677460623294,1,6,1
105,21.069333333333333,-19.66775,36.94891666666667,62.98681771538337,3.68360703057942,0.4020745625,0.0398652879802227,-0.000126621867713,21.383263553215578,1.460236033357748,82.78304076757543,786.219262295082,291.95548459586877,213.3333894858884,73.6842105263158,5.713716500291938,1,6,1
106,41.442166666666665,-9.932333333333334,26.998333333333335,63.06445225110106,3.6708122082986185,0.2672006104166666,0.0356153977190153,-0.0001223417061948,22.660919505776135,1.5248351093172632,82.9369134412778,775.586569579288,264.275722241131,195.72903506511304,68.18181818181816,4.58219357130413,1,6,1
107,60.025333333333336,-6.77075,12.2935,63.00960808173699,1.993875469006274,0.49999259375,0.551047075920736,0.0014305760863455,20.839186757611444,1.6462958369363374,82.52866119712621,791.460396039604,282.55909694019573,214.22531633405055,75.49668874172187,7.857948747308856,1,6,1
108,23.938166666666667,24.510083333333338,35.00075,63.479629792991034,3.178432739281804,8.502557822916666,0.6983144209442491,0.0020777499864094,22.32428138866825,1.5685001091834667,91.66135637427348,711.5170623145401,275.8990499454261,200.2673370590055,84.22619047619048,1.590795221154156,2,6,0
109,41.85058333333333,32.85433333333334,26.220166666666668,63.37998945693381,2.1121126324824613,8.921790345833335,0.272487284170391,-0.0006371859734412,23.154778669319317,1.637303783713269,91.2316220513638,722.7624622356495,305.0605961600833,223.99630484900172,81.21212121212123,3.4001825972403386,2,6,0
110,50.75716666666667,2.7680833333333332,29.526416666666663,62.90203721951146,0.7912312990067053,8.427418366666666,0.483999096357198,-0.0014954177824493,23.003560074773475,1.561407489857612,89.7345891983419,729.2778201219512,309.2433518898561,218.85221661842937,82.87461773700305,1.640975824574747,2,6,0
111,17.23481308411215,-10.332846573208723,49.76820482866044,63.14327481472336,4.389928455060213,1.4931583979166665,0.3252105828203762,0.0010407038781373,22.448697699278735,1.6434714411719875,83.06136612687735,790.8415841584158,293.92761820451216,219.66859406940196,82.45033112582782,1.356084587257676,4,6,1
112,49.029,22.156416666666665,25.500416666666663,63.46958231531911,3.35272834950839,1.0073607697916669,0.3304440719567227,-0.0009836029835712,22.65507941264609,2.0822920123237156,95.54284835702104,683.75,225.264675888343,194.3141268943519,70.48710601719198,3.7758629422799186,1,2,1
113,50.63141666666667,19.6405,0.4005833333333333,63.26902186799143,1.5267193152716196,0.3840443833333333,0.0939128125503635,-0.0003329328595327,22.479072452612336,3.1423314125173634,87.22645900972392,742.672748447205,233.6795236893183,190.26212916864077,67.28971962616822,2.465149207415319,1,2,1
114,51.02375,12.9815,-13.013333333333334,63.380915090741766,4.284061810188589,0.1574421864583333,0.0299271017749036,-0.0001050716067468,22.074148357125168,4.127383998552311,81.0016446391368,783.4967320261438,203.1387920916609,163.2365540532807,58.36065573770493,6.644241600200816,1,2,1
115,28.469416666666667,0.3903333333333333,35.820166666666665,63.212284161755406,2.730759550043542,0.1073808072916666,0.007679215027521,3.5936142576653056e-06,20.589343042129236,3.725323827372929,78.13591961362866,811.1758474576271,212.0124490201951,165.94119899743262,58.84353741496598,4.798962580872312,1,2,1
116,38.06616666666667,-43.57983333333333,12.452083333333333,62.8588944179912,4.080969151378287,0.1058979104166666,0.0145592600772918,3.0690076744332405e-05,21.546427420990465,2.367779759844186,83.17424035443642,762.8383757961783,193.91321837868824,160.35611106819755,61.02236421725241,3.621828329459737,1,2,1
117,19.317,-56.68691666666667,13.03075,63.172130817758074,4.584981418798415,0.1976733635416666,0.0440117430385786,2.9091484670936143e-05,23.000410721620025,1.8119611944533756,94.54585242287416,697.0207725947522,271.1468116645984,211.03853829775284,80.99415204678361,3.173580059657876,1,2,1
118,28.1995,17.157666666666668,18.15575,64.41502734192363,7.134096710345518,0.6442651843749999,0.1243196502135404,0.0001314450366631,22.635408245755865,1.757483990718287,99.16580844973868,649.4140625,236.5504172969583,178.35815440893606,78.47411444141689,1.4820621347567633,2,2,0
119,49.069916666666664,7.818,19.382666666666665,63.7412616224259,6.750245683044064,0.7646475239583334,0.1558360065296456,0.0005291885382294,23.298399651657313,1.66253141343522,100.78584752094898,649.2017663043479,248.05393580110135,196.78305017250705,79.56403269754767,2.726981999126612,2,2,0
120,62.047333333333334,0.1956666666666666,11.624,63.131624801003674,0.2538700165423368,1.0710629,0.0624868905387061,0.0001673953666941,24.02244955106856,1.9010355776947576,98.04630142087343,661.7748618784531,261.1184852839692,189.789380535554,81.1634349030471,2.0693776909009105,2,2,0
121,42.423833333333334,9.915666666666668,24.42775,63.50402840103424,5.16948999811748,0.8240227906250001,0.287629810239204,-0.0009593941496586,21.325910084706276,2.22673592396517,89.79950092056106,727.0136778115501,275.53501906670317,201.29187981770812,82.6219512195122,3.580216786173426,2,2,0
122,-34.97525,-17.859583333333333,-27.623,64.88842364363481,4.709031433763666,1.9824981697916668,0.1705829539749445,-0.0005468682875157,21.75077681345762,1.737261303524953,89.4431519876856,732.9892966360857,237.1259819326329,213.10434610326115,80.36809815950919,2.0680748921515746,1,17,1
123,-36.272166666666664,-30.529666666666667,-31.24075,64.7487762830582,1.9555612612443405,1.5783413614583333,0.079134527615871,-0.0002827998483139,18.87753573247835,1.874506990592619,69.82924968313878,901.7688679245284,204.82967679565405,172.675034925302,76.51515151515152,2.944320025476648,1,17,1
124,-42.72375,-40.488,3.2721666666666667,64.45201343061252,1.7838763242282645,1.3641683291666669,0.0662503971578345,-0.0002358731172125,19.647119501985102,2.070420518085201,76.96224625730787,835.8828671328671,257.17499929650603,201.23239222628945,83.1578947368421,3.1319286001997715,1,17,1
125,-50.56525,-10.892083333333334,3.29075,65.00584062500285,4.440225366284489,1.2187532333333335,0.0272266096641864,-6.93982231290397e-05,19.053417617248357,2.008991446480245,72.26808319891124,896.1259363295881,226.31829105814936,214.62065763694915,75.18796992481202,1.7989357107238224,1,17,1
126,-42.49758333333333,17.08125,22.092,64.58784963981185,4.000751459212321,1.1158530708333336,0.0275589255734641,-9.3550626777481e-05,20.105674467588575,1.979495321544651,73.70882511605474,856.8638392857143,210.8446588132827,177.50952922859187,78.49462365591397,15.466347606490343,1,17,1
127,-44.626916666666666,25.75575,1.4255833333333334,64.97695057582216,3.121080560825866,1.0521282541666668,0.0467150650620107,-2.7705088194539725e-05,22.62768479275914,1.501821511519862,92.47251640723604,704.6875,253.16460140343685,201.3757399710726,81.41592920353982,2.753783886679073,1,17,1
128,-56.90708333333333,3.3894166666666665,26.655583333333333,64.72674451272901,1.3999862322793362,1.0198815739583331,0.0124219517567334,-1.4869755304368052e-05,20.60831632927829,1.6491794995692803,92.62671036033385,703.4007352941177,257.52356820717085,197.20570329284104,80.53097345132744,1.319157488336905,3,17,0
129,-47.919,12.949583333333331,18.84475,64.88191974961718,4.793275456745056,1.0074777458333335,0.0221779318669197,-9.145576872371812e-07,20.32525182521,1.688999826810938,88.88354524323472,730.6592987804878,277.53691734831955,197.48308207787775,85.6269113149847,3.0341233422128884,3,17,0
130,-54.85608333333333,1.6876666666666666,-4.916,65.18009824525186,4.8436428514755825,0.9508895114583332,0.0379710097850961,-3.597861147445887e-05,23.61890479876161,1.4928633488141887,88.45307747338599,750.8816614420062,259.4651445043384,232.94033264841795,80.50314465408805,2.0232214380512654,4,17,1
131,-41.34558333333333,-0.4801666666666667,45.066,64.21083635405535,4.558462245764189,0.9303697333333332,0.0042950106002165,-7.856807597447223e-06,23.137170367176836,1.4158339127710835,70.94656587500165,896.2429775280899,227.85012149775417,190.35427745531507,75.18796992481202,1.801797860469709,4,17,1
132,-44.4075,-19.502166666666668,-6.0265,65.03028589841894,6.221421271426785,0.952215878125,0.081518690461661,6.242180231722273e-05,22.720988663549043,1.516548456175966,84.16971642339904,776.9379058441558,239.74076343475693,214.40109395410084,80.13029315960911,4.0558740401985665,4,17,1
133,-43.96933333333333,2.4686666666666666,44.22408333333333,64.2378801319383,2.318046480996615,1.0455347802083332,0.0513075314450624,-7.659125439182289e-05,22.13876260130461,1.7388839719668028,100.57835739102168,635.4305186170212,214.50494118240417,164.70918833872562,78.66666666666664,3.340562538131008,2,17,0
134,-39.25391949152542,1.2819915254237289,43.369597457627115,64.30991659573284,5.7127652474015145,1.0367708520833334,0.0313494262379213,-5.1472399207790215e-05,23.47539170728482,1.7202796488654326,101.43821764774246,632.1734828496042,231.30149666140136,174.12978178083517,75.66137566137567,1.6575513961841593,2,17,0
135,39.351416666666665,2.9995833333333333,36.17366666666667,63.10723729270243,3.616964834758788,0.2809146510416667,0.0119430577938302,1.82276243314608e-05,21.169227815213283,1.5014310225705034,84.49178053155238,776.6335227272727,275.28567760710445,220.8993175653127,72.63843648208469,4.181578228889825,1,16,1
136,37.5775,30.484666666666666,24.622083333333332,63.43390722651411,2.4630598811236317,0.2780905875,0.0048425266774185,8.206664680083087e-06,19.45321663809438,1.4295549518467785,76.7672084324126,851.3678825622776,279.59582994923227,225.41288667201752,81.78571428571428,2.5461014449924053,1,16,1
137,29.79375,31.7345,29.59175,63.57296826882192,2.875912404442907,0.2860602802083333,0.007146717919905,1.2777336204520676e-05,19.62181879166492,1.4509454891233022,82.9553575228509,797.8645833333334,305.60564807312926,239.18297050809537,82.60869565217389,2.8806363465195797,1,16,1
138,25.31525,20.4055,43.826166666666666,63.22064585734113,2.6071416111626067,0.2938020541666667,0.0069520574110881,-7.248731281175265e-07,20.02885108310781,1.3648994572340627,80.20079162207836,814.9978741496599,243.25642466321773,213.6249080641012,71.67235494880548,3.3224428171117077,1,16,1
139,29.350083333333338,-4.869916666666667,28.406583333333337,62.98840308015082,3.2267621664934696,0.2854312156249999,0.0060724435233381,8.37526201064646e-06,22.0576387106785,1.4366225305045273,82.6395996487237,796.0963455149501,277.90253274904376,230.80976831099304,84.33333333333336,2.3356325845591512,1,16,1
140,39.107,-37.73,15.1535,62.906903131624034,4.88151667569994,0.3592955791666666,0.082200288055038,0.0002621471115013,21.000375006696547,1.5332624533857266,82.1407477614464,774.5028409090909,213.06113340922929,181.88103914541037,63.84364820846904,1.2159167606204306,1,16,1
141,26.87425,31.659416666666665,22.2675,63.55372805038578,3.5383118711622727,1.684370359375,0.3438527720636239,0.0012070563632135,22.398120906710453,1.5218830715066325,119.9127269232646,530.2106430155211,194.28968295506007,150.19086841201008,46.88888888888891,3.271578645531415,2,16,0
142,19.1955,39.14775,18.15025,63.585728890160894,2.3003437801681796,2.383148689583334,0.080988006118727,0.0001003001606989,23.51203592315114,1.8988141396321236,113.1658077548244,562.4264705882352,198.76517803160672,154.9801164833422,54.24528301886793,5.401796915692964,2,16,0
143,48.595166666666664,-17.8405,35.09625,62.59606523375422,0.3354607551593278,1.760800753125,0.1804317363324426,-0.0006125449419772,23.331800180394357,1.874674880185839,128.34864452523678,477.7141434262948,105.69764403047408,85.39611509471767,21.956087824351297,9.363685982609791,2,16,0
144,32.54516666666667,-21.415166666666668,19.66875,62.94442567538318,2.489014476219338,1.5559739833333333,0.13930402328259,-0.0004325730837381,21.31686898783685,1.877282273763473,99.12702301903757,640.5414438502673,228.54111118646867,163.70897362425742,70.24128686327076,1.8599724962304096,2,16,0
145,47.317708333333336,39.927083333333336,3.8177083333333335,66.22523874376907,14.314511983675471,0.54915794375,0.0243482828892546,-5.0579261140148566e-05,23.251937661471786,1.6698964747894758,88.74407240176856,724.3371212121212,228.77037411135353,182.160002628518,74.468085106383,2.572751935019184,4,16,1
146,-48.82058333333333,-21.741333333333333,21.95916666666667,64.45347245766321,2.0655842149987227,6.601408189583334,1.2906445201903365,-0.0045302629682757,24.089475193576135,1.76151187068872,90.1344008966606,753.7342767295597,306.480370284744,269.19629782996157,84.54258675078863,2.4164131714164987,1,3,0
147,-54.52633333333333,-16.317666666666668,8.8005,64.8884694275012,2.0699924370811784,2.7583201479166664,0.7074609170702655,-0.0024065394389262,24.163390545594016,1.5680307225526962,78.16800825074732,871.0227272727273,266.0674181635393,281.8430959478537,79.19708029197079,4.956920192763522,1,3,0
148,-34.196333333333335,-18.62975,32.622083333333336,63.93479059179723,1.7501100869286776,1.3921855333333333,0.3248860960565848,-0.0011502017703469,23.42513073933695,1.485438600445067,86.53953529654243,790.8733443708609,289.00041142026026,284.4332192376063,82.72425249169434,6.734635530074938,1,3,0
149,-39.46383333333333,3.7460833333333334,45.613166666666665,64.12757244376242,2.873969810210651,0.7019372802083333,0.124410376508334,-0.0004205011987114,24.129408314831327,1.7368220611343326,72.21452713149458,948.1026785714286,280.03347458375436,298.2960004828015,82.86852589641434,5.9324397089079985,1,3,0
150,-31.98875,45.406083333333335,22.152416666666667,64.82734824295117,4.1479717678806205,0.431766965625,0.0580037093556117,-0.0001969285564342,24.327846695950186,1.7266297207297765,79.74224971568177,863.8473731884058,317.9021701289994,291.8814934958438,81.81818181818183,2.6684563814465325,1,3,0
151,-38.085166666666666,38.303333333333335,1.0875833333333331,65.27416894090221,7.809531723555735,0.4649990156249999,0.0996065985998938,0.0001130221152244,23.870489135637023,1.6217239017820653,79.90867988125628,848.0718085106383,299.36241373924435,276.8075717704625,82.91814946619218,1.2266722392577911,1,3,0
152,-52.6385,-2.4334166666666666,-0.35125,65.68452303810362,6.04597110398054,0.9899709104166664,1.1074068263507828,0.0031397628749732,22.93911112444858,1.5427943032270084,101.70327503482928,634.3667108753316,209.10725874911455,184.08155607337883,67.55319148936168,2.645749550646745,2,3,0
153,-60.50533333333333,-12.4015,-18.580916666666667,65.45500552269186,1.191568444409154,4.176770739583334,0.5240550030595894,-4.868783631763901e-05,23.773207178436092,1.6407961676918976,99.6745212305488,646.3948787061995,224.20650010091143,180.5126513158928,75.67567567567566,3.689078692938961,2,3,0
154,-59.51625,4.952083333333333,-3.175333333333333,65.50219659437998,3.3908319497132964,2.1875101947916664,0.4518654419244122,-0.001612302038434,24.091634251707383,1.6436166313931706,98.33891460888772,660.3936464088398,256.15159248192265,190.4488373976685,81.44044321329639,5.024085317445205,2,3,0
155,-56.46208333333333,0.7865,2.3906666666666667,65.32028361045604,2.9656869439620173,1.3450539583333334,0.1931770644518432,-0.000637215455122,23.155611220643497,1.566742413653341,86.69398671695858,780.2798202614379,305.4245105747672,262.29381701693006,83.27868852459017,2.8467235347386106,2,3,0
156,-38.869703389830505,25.67425847457627,13.517478813559322,66.4664241255903,9.00217452399905,0.4397409302083333,0.0112578306032736,5.419799263291331e-06,23.049784398275182,1.5240884175211515,94.80513668252893,704.6415441176471,319.18887703649716,243.59882463624444,85.5457227138643,4.019487883369976,4,3,1
157,-36.377916666666664,-45.84675,-7.44925,64.39302892703107,2.8621511029073137,0.2849211052083333,0.0184174685035581,-2.446772519148779e-05,22.04724409448819,1.5930958995575275,79.15887428495965,801.4890939597316,207.80789167949345,170.41020260052971,77.10437710437712,2.805556533548681,1,14,1
158,-42.17966666666667,-38.747166666666665,-3.694,64.54435737367797,1.983372015602788,0.2679829697916666,0.0027523292775778,1.7591389191501214e-06,20.683939317502073,1.6313600642987958,74.31323565823041,822.2723367697595,151.27310845129497,104.8443850507508,67.93103448275863,3.4696346638426454,1,14,1
159,-40.153333333333336,-28.724166666666665,-30.589166666666667,64.77357961848485,2.1383132155518085,0.2781663760416666,0.0046115397495541,4.473348786999283e-06,20.868253436138115,1.5738123565716935,77.75683257781029,803.9772727272727,212.78865840077896,150.071543716559,71.95945945945947,4.998635268032195,1,14,1
160,-46.565083333333334,-26.0125,11.72075,64.51819157166626,2.005065997693338,0.2907056885416666,0.0037327637479199,5.466512638631139e-06,21.49152379117704,1.59062357051522,79.69784878089465,788.0345394736842,237.8422034192213,161.46887729269355,73.92739273927394,2.7567486886510806,1,14,1
161,-48.31316666666667,7.129833333333333,20.278666666666663,65.16676493527537,6.0133253033491165,0.30722689375,0.0064647921432461,9.467315787560612e-06,20.27872819828089,1.7510789817973178,78.13863164833678,793.9680232558139,198.10914434451703,136.13095612172154,68.33333333333333,2.602027871903764,1,14,1
162,-49.01841666666667,-28.736083333333333,-12.053833333333332,65.60354277115582,7.319005570417072,0.3082142927083333,0.013656785672055,1.713717216625675e-05,22.618342398621355,1.696300040381577,90.994163455695,688.891882183908,173.3525532230019,144.63918312260353,48.414985590778095,7.0889282072037805,1,14,1
163,-43.773,-19.196416666666668,25.554833333333335,64.35955067066936,3.3840046497520055,0.335243825,0.0127381260879249,-2.52332425219646e-05,22.793959779574894,1.8442275652307163,115.51421199244496,537.2757847533633,147.65139642608543,114.67115273739978,28.76404494382024,9.167544082851816,2,14,0
164,-42.8495,-27.251666666666665,-11.871666666666666,64.8219305537534,3.5183309420383404,0.3393480833333333,0.0048663884122079,9.949418049498589e-06,23.371028540656972,1.4627338430614705,115.95798331660396,554.542824074074,213.19226243642385,163.99008226423098,64.73317865429236,0.75193876682093,2,14,0
165,-39.76708333333333,-26.589,-0.9351666666666668,64.63663858340607,3.6258152147449865,0.3380554708333333,0.0273945025520477,-6.596921339975425e-05,23.300623378172823,1.6840985672332969,122.42313227707945,512.8814239828694,164.60685927273866,135.24420730353182,31.545064377682408,3.5730010486648007,2,14,0
166,-51.98891666666667,4.301666666666667,36.89783333333333,64.49580405699247,1.610127026676354,0.3372772875,0.0389304903408873,5.1885690698991595e-05,24.0410686526156,1.7749377287326646,113.520509235052,540.3146162528217,110.87718829302524,95.18484723582038,21.49321266968326,1.8233279671859743,2,14,0
167,35.92608333333333,-18.970833333333335,34.67366666666667,62.87451258653005,4.6328986973176285,0.2460691770833333,0.0210975062866319,5.075640270334487e-05,21.446207265278172,1.4462053056783033,91.7970711222259,701.1604532163743,252.13161759976688,186.8203018347992,68.9149560117302,1.7713452964105774,1,15,0
168,35.370666666666665,-16.547916666666666,43.120666666666665,62.71263991348973,2.6900827275336003,0.2666544624999999,0.0072374452879804,2.753056250603499e-06,20.83594828668256,1.3467314191832962,88.05334739963031,712.4720982142857,215.8523433780394,151.00179455134125,52.83582089552239,2.987843651791689,1,15,0
169,35.87316666666667,-15.756833333333333,42.12741666666667,62.736438718734384,2.990430329760377,0.2666557770833334,0.0154218025311129,2.41778015709651e-05,20.25072324011572,1.4493807922107436,94.87136145291484,679.5099431818181,239.61671775951544,177.50487521472974,59.544159544159555,3.90283223878136,1,15,0
170,33.153,-9.51775,45.302,62.85954278402998,3.074567338022855,0.2951671864583333,0.0125879747271297,2.8497642209357415e-06,20.263267615700755,1.3096956133645188,85.04497882103556,730.8498475609756,189.8505191198901,134.32077371539052,48.01223241590214,6.72825707905171,1,15,0
171,52.17283333333334,-2.181,14.919916666666667,63.059476374069995,1.9163392431338984,0.3117109072916667,0.0130073383233092,5.533426000624803e-06,21.56932998925117,1.2964462730657549,93.17298601692882,689.2510775862069,243.48152657320992,178.8414562592463,65.41786743515851,2.1688797467037206,1,15,0
172,40.25,2.011,35.61975,63.0497888831048,2.84104531160289,0.3756347385416667,0.0765173301493781,0.0002597281803216,21.38108642271067,1.5553549915444198,92.3964568395036,699.3440233236151,253.54559265149348,189.84449601808572,75.43859649122807,2.157296995942072,1,15,0
173,57.19083333333333,-14.53625,-21.009333333333338,63.041208014025,1.4206836848605329,0.4794273291666666,0.0567329402034397,0.0001289858711869,20.875876565241605,1.4124852535131962,85.78921632746605,747.75390625,271.53495922461406,187.8930359366499,71.78683385579937,2.7509661510992847,3,15,0
174,28.205666666666666,-23.021,33.787333333333336,62.80585049596572,3.925066047648355,0.6101362385416667,0.0495674986957218,-0.0001647299774834,20.668919202770255,1.581581773865511,80.87339837122798,769.4935691318328,197.2614454803165,140.12991094036698,50.96774193548386,2.9453703054824456,3,15,0
175,37.10175,-15.0235,28.99025,63.63428703553695,9.8936434211852,0.5634169,0.0272109013738519,6.46623610024533e-05,21.269623760016685,1.424809156271832,88.1203854009145,726.2537993920972,250.5576264857402,181.7689745032073,72.5609756097561,4.547922020730939,3,15,0
176,51.291583333333335,-13.031083333333331,19.511583333333338,63.04497755387033,4.048175131914566,0.465287621875,0.0735840650596574,-0.0002497322001963,23.81506616290938,1.575603352811414,83.31935121201215,770.4983922829582,245.42018516883743,182.6018724652108,65.48387096774194,1.006876677485971,4,15,0
177,37.45033333333333,-2.490166666666666,37.77908333333333,63.153536270387654,4.059590276308408,0.3404381124999999,0.0149044856389028,-5.137284614837921e-05,25.750919675702697,1.8192029301751944,72.95893401758639,832.807055749129,130.65301398503644,99.12298985113524,30.769230769230777,6.745280138231203,4,15,0
178,41.4785,-1.614083333333333,15.121083333333331,63.10050514803003,2.722116222739773,0.4298084208333333,0.0703133814712005,0.0002201322580373,21.24047249214319,1.4648998441458358,92.26779811523105,693.4782608695652,203.08831008085392,170.698575282564,60.17441860465116,6.400092539774916,4,15,0
179,44.26466666666666,-20.561666666666667,11.601666666666668,62.976990316204336,2.150121867717347,0.614261765625,0.1107047445412715,0.0003285459861271,21.19415358552454,1.6951315209716489,91.83007962946137,688.9816810344828,222.14741566929072,159.5640612227073,74.06340057636886,2.74361197838888,2,15,0
180,42.8515,-14.719583333333333,0.0639166666666666,63.05893288800471,2.754508369827695,1.2044574666666668,0.1462945085447891,0.0004929709918169,25.25165338206668,1.9318617211652795,94.46235881491825,686.1530172413793,255.02646850821083,192.83342947907295,79.82708933717579,2.624207147716142,2,15,0
181,42.78125,39.9375,19.921875,65.94334299346468,13.06081505290814,1.448892221875,0.0672126139523687,9.589298076631022e-05,22.421094302954693,1.5305423648240613,88.03283720825364,718.7969219219219,223.13668509107535,163.71747781223942,73.79518072289159,3.3918661792901363,2,15,0
