ACC_x_mean,ACC_y_mean,ACC_z_mean,net_acc_mean,net_acc_std,HR,IBI,HRV,label,subject
-41.3125,15.99375,8.661458333333334,66.55076127797352,14.368561108273163,79.13545407282534,821.4285714285714,293.126489397947,0,3
-46.4875,-5.847916666666666,9.185416666666667,65.32258140647697,6.6976320487809025,93.18064282288671,695.6845238095239,313.58424710193555,0,3
-40.979166666666664,-26.791666666666668,-42.60104166666667,64.95482655512741,0.6729033065617959,88.85062316306366,749.599358974359,308.8603840606709,0,3
-33.405208333333334,-41.01979166666667,-33.110416666666666,64.53255728034968,1.1748620593024894,89.33959839848815,726.953125,250.23776754216615,0,3
-44.9625,-31.322916666666668,-24.471875,64.91111984342834,2.214925658365081,85.08642473114963,743.5897435897435,227.5881390137386,0,3
-56.026041666666664,-14.529166666666667,-17.234375,65.38312473779735,3.2137594063079606,95.35114898118567,679.5058139534884,204.89158537126988,0,3
-50.610416666666666,-35.6875,-12.842708333333333,64.9948258069969,2.1371499677834014,89.28046486001985,741.9871794871794,275.7013894918979,0,3
-50.44375,-31.666666666666668,2.615625,64.72035191091858,3.909391281711846,75.24286673777294,847.7678571428571,179.29745069912698,0,3
-43.84375,-42.905208333333334,11.021875,64.12416134382455,2.107589132434623,82.57877393560939,782.483552631579,253.52508421791867,0,3
-51.778125,-18.260416666666668,-21.189583333333335,65.71141629247857,6.252864183975913,96.47990355778113,694.5684523809524,350.3897274864787,0,3
-50.40833333333333,-21.645833333333332,23.328125,65.06408332295014,5.10937240218412,92.06876264310472,714.939024390244,369.6311638182379,0,3
-53.1625,-11.61875,15.769791666666666,65.33597426848637,5.6556615929840035,94.6316832600051,689.6802325581396,283.10400820950196,0,3
-49.5,-10.972916666666666,30.698958333333334,64.43833392997284,3.1477630145834667,81.48131965082507,820.7465277777778,239.94860870909122,1,3
-45.7125,-7.41875,44.11875,63.973811355616625,0.3051676631706724,54.95743919054398,1102.1634615384614,129.71573487823287,1,3
-40.15416666666667,-22.308333333333334,36.385416666666664,64.10378792224927,3.995074970421618,89.0661031149729,737.109375,277.51932754938264,1,3
-44.869791666666664,-20.708333333333332,32.97708333333333,64.33432201663076,3.3819696914360273,81.92318034485764,828.125,342.6219315023902,1,3
-55.5375,-7.405208333333333,31.26875,64.47305107549882,0.9046509544865918,70.82599367041345,934.08203125,298.35687033586623,1,3
-54.825,-34.325,-4.090625,64.86297199814253,0.6551630088603061,60.62527932574567,1061.3839285714287,178.63393829851324,1,3
-54.717708333333334,-23.434375,11.54375,64.969338976361,1.0396279661656536,73.82537404243031,926.4112903225806,235.2068570960464,1,3
-58.00416666666667,-6.110416666666667,26.327083333333334,64.69780106066473,1.866021949133887,68.67072106623294,984.9137931034483,243.40850047333709,1,3
-46.05416666666667,-29.341666666666665,17.982291666666665,64.2649189115186,1.6158039163024296,77.624743884459,863.0514705882352,270.1541235544719,1,3
-35.38125,-42.401041666666664,10.619791666666666,64.05352895609745,2.2839136594271117,95.70574935146549,690.7703488372093,326.7224844500882,1,3
-44.41875,-7.992708333333334,40.95104166666667,64.1442857647937,2.2211529418641573,73.44289139243972,882.1022727272727,248.56153546770364,1,3
-52.98854166666667,-34.32083333333333,-0.3229166666666667,64.90216505675586,1.7980348380806692,75.56808617615702,868.5661764705883,294.7617168103241,1,3
-54.33125,-31.925,5.192708333333333,64.91024267890437,1.453078467395067,78.91308981763719,880.2083333333334,290.49738881813767,1,3
-55.90208333333333,-30.507291666666667,10.55625,64.74484157237845,0.6924219096392459,66.37541322935104,996.7672413793103,225.6949213975424,1,3
-56.57395833333333,-15.552083333333334,18.352083333333333,64.79806836417332,1.5912923276131858,83.51979769074435,820.3125,186.8291570621979,1,3
-58.69895833333333,-3.580208333333333,26.370833333333334,64.68730399751897,0.5047621874722216,94.98846720229803,703.8690476190476,324.06202592457737,1,3
-61.27395833333333,-4.673958333333333,19.323958333333334,64.93648228572154,1.644478647729761,94.64487802524363,687.5,216.82829365323022,1,3
-55.422916666666666,-10.448958333333334,19.466666666666665,64.72712298648096,1.1182985109681591,72.50620342680126,924.8046875,331.43254252100155,1,3
-58.06979166666667,-24.714583333333334,-7.711458333333334,65.22055954655154,2.693639873490548,85.53679492616241,799.9131944444445,373.69564822191876,1,3
-42.77291666666667,-30.41875,-2.909375,64.87684793188559,5.187306053209061,84.86220657693134,773.0263157894736,311.73893812057,1,3
-35.084375,-35.014583333333334,1.609375,64.36288479384162,2.797375737127991,85.30172247617892,839.2857142857143,338.1160125749132,1,3
-60.82604166666667,-18.975,-15.139583333333333,65.49223502371271,0.3784088601577577,70.27414107220939,959.1733870967741,264.56590329726913,1,3
-61.33645833333333,-19.434375,-10.835416666666667,65.34468182333998,0.9429867831142461,65.31544583387534,996.7672413793103,225.86870371294094,1,3
-61.032291666666666,-20.302083333333332,-9.555208333333333,65.22362754792863,1.1380141280985852,67.76981181588782,985.9913793103449,312.4023284864408,1,3
-50.4,6.039583333333334,39.671875,64.50385833878266,0.7311300000167275,73.67064144943203,924.8046875,308.74763287586774,1,3
-41.11770833333333,2.934375,43.04895833333333,64.16836057906941,2.6925128773195155,62.62147694107634,1054.398148148148,208.64359909258584,1,3
11.790625,-54.20625,26.273958333333333,62.55900191984283,1.5760008861359072,82.50201628519186,840.5330882352941,299.61603427123896,1,3
19.083333333333332,-52.795833333333334,26.645833333333332,62.41741859140464,0.3247148267438575,54.9284593641306,1119.5913461538462,263.428417696345,1,3
6.775,-38.646875,26.51875,62.943222099023465,2.7491968753931437,70.91494219438547,935.9879032258065,226.82276717369746,1,3
-51.536458333333336,0.42291666666666666,38.415625,64.38031714125667,0.3976155486718846,86.3362927827007,794.3412162162163,407.20873782765807,1,3
-52.74166666666667,-1.6572916666666666,36.93541666666667,64.4636168930431,0.29476894957527194,78.88167313680952,855.2389705882352,310.56455573119604,1,3
-54.682291666666664,-3.559375,34.1625,64.57863674233369,0.33802342380929584,75.8706567344516,884.765625,344.8251149191895,1,3
-45.19583333333333,-2.478125,44.54270833333333,63.9852946018624,0.35176892919161457,87.08379691187794,797.2972972972973,363.75463854908054,1,3
-42.067708333333336,-2.0,47.979166666666664,63.84164131307715,0.14448570540231354,85.94498193527464,815.1041666666666,325.0386309458352,1,3
-42.817708333333336,-1.5010416666666666,47.807291666666664,64.19947405680675,0.35857007134645386,60.57813687560427,1046.875,224.38186696393765,1,3
-49.00416666666667,-14.402083333333334,30.190625,64.37725610760747,1.2938718595175642,68.71150397772773,963.5416666666666,238.99892804730024,1,3
-55.67604166666667,-30.3375,13.1,64.74709075678115,0.40397631920504196,52.87629325238858,1139.423076923077,96.77414104501264,1,3
-54.44895833333333,-31.033333333333335,12.961458333333333,64.71090522680593,3.300062331836654,58.81522751442622,1063.0787037037037,164.24840657522367,1,3
-40.25833333333333,22.309375,30.146875,65.04976404482778,6.118369693981487,89.33185535033779,727.734375,292.61664203991876,0,3
-45.325,1.9614583333333333,45.184375,64.04263103064541,0.353191174787276,70.8165379488633,921.38671875,283.2728553615355,5,3
-43.85520833333333,0.865625,46.58125,64.05929891214983,1.179677731630749,85.41236538990098,761.1019736842105,258.65252684880204,5,3
-43.67604166666667,-0.4083333333333333,46.75,64.04433425638489,0.9965145875054598,90.60839332643745,767.6809210526316,406.8667356033675,5,3
-46.075,-1.5854166666666667,40.72291666666667,64.27195999812712,2.527876183508196,85.93978672616629,792.2297297297297,245.57995858584994,0,3
-40.89895833333333,1.690625,49.05416666666667,63.911150668057665,0.5847252501505066,78.50936723551064,863.9705882352941,350.0731288591605,0,3
-35.11145833333333,-2.0864583333333333,53.057291666666664,63.7528249465662,0.5545445571095735,91.42653351595959,722.9420731707318,343.8032629189985,0,3
-31.221875,-3.3020833333333335,55.32083333333333,63.629201661908276,0.6163636925885034,90.27431722599883,741.796875,322.7292156508539,0,3
-31.321875,-4.836458333333334,55.14895833333333,63.62779950263282,0.6341047122458617,95.61132287844349,687.5,326.90924146884885,0,3
-37.58958333333333,8.044791666666667,50.065625,63.96456766558798,1.2199385316825073,97.42114967857566,700.8384146341464,385.2679541363063,0,3
-40.817708333333336,1.23125,46.848958333333336,64.01478535403193,1.9362135067924673,92.91659501780462,718.3689024390244,260.57937625246745,0,3
-42.463541666666664,-0.721875,44.87291666666667,64.13097620557505,2.7274024736551308,94.10227113218086,725.9908536585366,324.11990210028756,0,3
-28.473958333333332,52.159375,12.828125,65.41265672535523,6.360192486408833,95.96004494328548,672.5852272727273,244.95268290113728,0,3
-29.365625,56.619791666666664,10.46875,64.77532448081301,2.3516494364709306,88.46314761366153,756.8108974358975,337.88735690159734,0,3
-28.779166666666665,56.639583333333334,11.885416666666666,64.67260171350557,0.9073795271420887,98.25456990897031,664.7727272727273,328.8509411528162,0,3
-28.444791666666667,57.003125,9.959375,64.8540137657527,3.8608103818878745,97.36776835340949,677.3255813953489,306.0817838548026,0,3
-37.932291666666664,45.7125,14.4125,65.2289610397927,4.737080676521522,102.36956597167445,629.4157608695652,233.34263374321935,0,3
-45.30625,26.291666666666668,24.552083333333332,65.00094765714134,5.788254227908829,96.3486294189022,670.0994318181819,262.24768119776513,0,3
-32.40833333333333,39.15208333333333,38.1375,64.36651563909095,1.3321340583160926,72.78728734618159,889.6780303030303,335.0847643752342,0,3
-26.246875,41.27395833333333,41.70520833333333,64.2857851538964,0.3584022140994105,63.64784496136695,1012.8348214285714,272.8457552065989,0,3
-23.867708333333333,42.94895833333333,41.340625,64.2381585947904,0.3529948307763371,73.56993655907351,913.0859375,289.09314898544824,0,3
-24.252083333333335,43.19479166666667,40.80625,64.1867036351304,0.3526586488429316,66.45434649941512,978.6458333333334,316.63482192043585,0,3
-36.56666666666667,34.161458333333336,26.95625,64.70454993679014,1.8244202213569063,69.31581676610884,925.78125,246.11075050086043,0,3
-38.890625,43.784375,4.333333333333333,65.80873925884534,6.8533328019762445,101.58166950725541,640.2853260869565,249.41337424043633,0,3
-34.00833333333333,52.297916666666666,5.930208333333334,65.90225673652087,8.999991594460445,108.43123691827456,575.6740196078431,183.60538526960474,0,3
-45.157291666666666,27.13125,-6.336458333333334,65.68002532934564,8.630789230221929,114.96697713746211,549.1898148148148,182.25516256243702,2,3
-42.405208333333334,32.51145833333333,-1.5833333333333333,65.39971627116269,7.960450886607269,103.04193503052215,598.8520408163265,145.63556158052538,2,3
-41.063541666666666,26.239583333333332,1.5625,65.19088371942189,7.230414110834007,94.27457693373904,668.6789772727273,194.51508729670948,2,3
-35.24583333333333,38.922916666666666,19.264583333333334,64.93534994779118,6.097157301390183,93.93385025664467,680.5959302325581,248.30854507355878,2,3
-32.20104166666667,53.36354166666667,9.726041666666667,65.48914862940973,8.334888729216225,90.43779287933108,706.5548780487804,203.0498659119848,2,3
-42.965625,21.673958333333335,-14.070833333333333,65.87619872848697,11.227356074260117,98.09408616891092,634.3085106382979,148.7321874610755,2,3
-39.177083333333336,37.865625,-0.75,65.3433293648967,9.490035081281949,101.44045442415079,634.9734042553191,214.32589515557638,2,3
-40.427083333333336,33.833333333333336,-9.69375,66.13523130811116,11.938293282094376,105.41410078974529,601.5625,193.24369760029444,2,3
-43.62083333333333,23.89375,-11.792708333333334,65.10752879083995,4.146322034841688,90.06798756143138,727.8963414634146,295.32903392868434,2,3
-35.390625,48.3625,2.296875,65.0245150975217,7.629297892478227,98.64811295042638,669.0340909090909,313.3799384588751,2,3
-30.348958333333332,56.161458333333336,9.369791666666666,64.67405913157259,1.8925380962751923,93.23684559429508,688.5901162790698,240.77328068839444,2,3
-32.545833333333334,50.91875,10.772916666666667,64.70068255053967,4.492680435362753,94.07508489559622,670.0994318181819,179.51758270431336,2,3
-31.140625,55.73020833333333,9.790625,64.66449859315374,2.3597132656357167,102.68866114369185,614.5833333333334,196.297383831105,2,3
-30.854166666666668,55.969791666666666,9.183333333333334,64.58200935126028,0.6279143946929343,93.19230496306956,677.3255813953489,226.81251599220514,2,3
-30.146875,56.329166666666666,9.5375,64.6061473116155,0.4967607235917654,101.3131406938556,631.9813829787234,238.71658157307536,2,3
-30.73125,55.748958333333334,9.980208333333334,65.11902719537171,6.820603379597165,97.40910477449975,659.0277777777778,231.0728552158684,2,3
-29.991666666666667,56.409375,9.428125,64.59849888512491,0.6911525074213819,96.60250144981468,677.3255813953489,280.8984244370026,2,3
-29.23125,56.770833333333336,9.879166666666666,64.62298940758551,0.46600074437461475,93.41081996492615,698.6607142857143,303.70630394326366,2,3
-29.6375,56.639583333333334,9.334375,64.82150555905527,3.4482061119807383,98.47688670737237,641.6440217391304,192.63793759278056,2,3
-28.833333333333332,57.01875,9.602083333333333,64.63831341373803,1.194126889142744,96.62956505100111,669.3892045454545,276.9987157324775,2,3
-31.46875,55.15,8.377083333333333,64.71372801292698,2.0896746163564837,93.58309939333849,708.3333333333334,307.195839061315,2,3
-33.10625,52.614583333333336,8.413541666666667,65.18723641886957,6.377878414520407,102.02981159765969,632.6388888888889,270.42783600923246,0,3
-52.840625,7.196875,18.839583333333334,65.40022119452735,6.809202183337093,100.91607632319403,634.9734042553191,246.57986623968836,0,3
-38.12083333333333,1.321875,51.05625,63.75882994062747,0.5497541288119477,82.08708683391295,802.7871621621622,293.34755602948576,0,3
-38.23125,1.2666666666666666,50.88333333333333,63.67322490405228,0.5319119456980732,78.53445923080595,847.3214285714286,288.2851730364346,0,3
-38.340625,1.73125,50.911458333333336,63.7692588276854,0.48343758749289456,71.49771802430588,905.2734375,258.6854417281668,0,3
-40.721875,1.9322916666666667,49.07604166666667,63.85080002120971,0.4273503459136639,81.58638924413063,827.2569444444445,382.3316039214426,0,3
-41.68125,2.0083333333333333,45.78333333333333,64.12513571717635,2.3984132088486256,83.08593736984687,824.1071428571429,341.7492745215846,0,3
-42.958333333333336,-5.746875,35.45729166666667,64.11669382678252,1.9636248935646665,73.10439231870845,914.55078125,304.65195719076104,0,3
-41.37083333333333,-7.7375,34.67604166666667,64.07682308074642,1.7215890562859155,88.90920149916498,761.6185897435897,315.18174972837846,0,3
-47.884375,3.828125,32.76875,64.57957342653397,4.591154108381371,98.25138032852355,666.0610465116279,251.92248164058793,0,3
-52.81458333333333,0.7208333333333333,36.755208333333336,64.46482837317726,0.9114244255370361,93.270259666536,698.6607142857143,290.21123509542105,6,3
-46.81666666666667,1.9489583333333333,43.7125,64.16208548650991,0.396225131874246,88.05500421786621,760.2796052631579,279.9448885495144,6,3
-43.744791666666664,3.029166666666667,46.615625,64.0599513945662,0.7171429372751272,92.73688581868852,708.7053571428571,341.4295990578509,6,3
-53.380208333333336,-7.134375,10.847916666666666,65.24101827856376,4.3657226178619135,97.82103195265488,664.9305555555555,282.3722873526591,0,3
-46.715625,4.911458333333333,-7.501041666666667,65.27413584186517,6.262379614097681,95.54547019997091,690.1041666666666,258.6167472365614,0,3
-38.3,-32.42604166666667,-41.045833333333334,64.84737882705664,0.8574191469400421,91.50144658847896,718.3689024390244,266.4051044696779,0,3
-39.41770833333333,-34.18541666666667,-38.485416666666666,64.88885321733646,0.9322123178930368,89.97650421487087,737.109375,293.8974329962664,0,3
-56.590625,-19.989583333333332,-18.020833333333332,65.34220344759092,3.0777411002720143,84.37072224642877,797.2972972972973,389.50359868095785,0,3
-57.235416666666666,-23.104166666666668,-12.205208333333333,65.16430520506285,2.4731462030012605,90.26896281818017,727.34375,201.5937103147356,0,3
-50.405208333333334,-18.16875,-0.29270833333333335,65.10583755668193,4.511873156049313,86.42068985173604,762.3355263157895,276.83995568593275,0,3
-55.12083333333333,-20.511458333333334,6.270833333333333,66.02484698012078,9.811653254419955,101.52161895069477,633.6436170212766,270.10292045046367,0,3
-42.059375,29.0875,24.998958333333334,65.10775388694589,6.590331336906864,90.07224938262809,706.4732142857143,223.9819660437082,0,3
-27.846875,61.954166666666666,9.217708333333333,70.12353320502523,13.419376817760938,92.84513146717944,692.5872093023256,229.99377256062107,0,3
-48.47083333333333,1.8822916666666667,6.2375,65.19220629960292,5.436775648919178,103.79666512734558,620.7682291666666,255.08052415500381,0,3
-62.452083333333334,-4.152083333333334,-18.915625,65.52944967934165,1.961763591592149,101.08102715726812,661.8055555555555,354.6267969680815,0,3
-64.14791666666666,-3.957291666666667,-12.096875,65.49896564188161,0.44962930317916383,93.61610919819431,707.5892857142857,326.6973150650793,0,3
-64.97916666666667,-3.01875,-6.480208333333334,65.45968420967016,0.8363819922298132,76.55997102507662,889.2045454545455,318.2455222031313,0,3
-49.58645833333333,-3.1552083333333334,35.0875,64.49380440057598,4.338925820243915,96.97184999468735,681.1755952380952,353.01402583895225,0,3
-58.9875,-10.222916666666666,0.6854166666666667,65.55166154100588,4.956948242626351,95.6028087186541,674.0056818181819,303.9622218962684,0,3
-58.73020833333333,-10.653125,-21.102083333333333,65.45932646782731,1.0653223510916154,91.44388360439079,724.0853658536586,250.36594310878226,0,3
-62.239583333333336,-7.522916666666666,-11.586458333333333,65.45034591072266,1.7461658474351274,93.45421413096233,702.3628048780488,315.27091834345424,0,3
-61.63229166666667,-9.370833333333334,-18.6625,65.52264501029387,1.181749771176846,95.4348266489511,694.4040697674419,286.4515691842082,0,3
-62.17916666666667,-10.658333333333333,-17.045833333333334,65.49606013763811,0.5875994499290507,91.15576765501308,758.8141025641025,388.85288820807693,0,3
-63.188541666666666,-11.666666666666666,-11.267708333333333,65.39556047205659,1.6992166466513223,94.81843850968384,731.25,302.47336116548115,0,3
-63.65416666666667,-12.015625,-8.659375,65.57890508945256,1.5721929276992266,83.97876113631501,812.0659722222222,327.2842118971565,0,3
-62.567708333333336,-11.802083333333334,-13.958333333333334,65.56382218358542,1.9041653497512752,94.93097643851188,710.1934523809524,358.26312621690124,0,3
-62.182291666666664,-12.217708333333333,-15.266666666666667,65.44537561760538,0.9771865757768591,94.2761674168495,682.7761627906976,276.8652079586314,0,3
-58.975,-14.76875,-23.895833333333332,65.39684092611304,0.6654173261949942,101.31414189895082,652.0833333333334,322.2984444376544,0,3
-59.85520833333333,-14.95,-21.786458333333332,65.43286676642418,0.2964176007759517,89.70776884448624,765.2138157894736,363.2102925833926,0,3
-55.809375,-14.922916666666667,-29.070833333333333,65.36908091585649,0.745073966936699,98.90161324406728,662.9971590909091,285.73618453245075,0,3
-58.5375,-15.396875,-24.723958333333332,65.42235282097027,0.31145042700631576,82.60244530805507,802.3648648648649,332.69184693551034,0,3
-55.66875,-16.578125,-28.775,65.4426904650515,0.8472345378495256,90.48723554799422,762.2466216216217,385.18785437721453,0,3
-57.028125,-15.263541666666667,-28.203125,65.5200385167879,1.1126969152900044,92.39528259257999,719.5121951219512,275.2395973284004,0,3
-54.829166666666666,-15.015625,8.921875,65.04312918522976,4.003864274278849,98.17734668031866,656.25,274.19740188204497,0,3
-51.6875,-17.775,7.704166666666667,65.17082322329202,5.899086121179236,85.00864480587104,737.890625,198.44838325697617,0,3
-50.778125,-3.128125,16.347916666666666,65.42519679792468,6.644380378898559,100.42118171197228,628.3244680851063,181.18029487976162,0,3
-52.9875,25.378125,4.096875,65.70408300632222,6.836676309800412,102.30151744672183,635.8695652173913,272.31167039503333,0,3
-63.95520833333333,13.9875,-4.340625,65.61324732903212,0.21336574059992555,74.10286676947933,938.508064516129,425.26607786086913,4,3
-63.971875,13.8875,-4.958333333333333,65.65165205740166,0.23531638391069887,82.68347734752223,843.3035714285714,447.6805907174747,4,3
-63.89895833333333,14.09375,-4.6,65.60337378041096,0.2467595881762883,78.19856638027035,856.6176470588235,336.18791318767677,4,3
-63.98229166666667,13.409375,-5.0125,65.56612305691,0.15866301648892278,58.78012645288704,1083.912037037037,246.8057656083018,4,3
-63.98645833333333,13.242708333333333,-5.092708333333333,65.5425925980581,0.14724308125709318,61.03791917776754,1078.125,302.28186170901694,4,3
-63.96875,13.261458333333334,-5.442708333333333,65.55859187828445,0.18311454485269543,65.13200367729749,1016.1830357142857,345.76953059377155,4,3
-63.97604166666667,13.328125,-5.572916666666667,65.59030225014672,0.17607025415920455,67.22767729541987,974.4791666666666,309.5904422266673,4,3
-63.85625,13.751041666666667,-5.53125,65.55999035139067,0.27980372685904537,67.44884808019722,977.6041666666666,382.9746533771007,4,3
-63.97708333333333,13.430208333333333,-5.664583333333334,65.61999655868732,0.17797931864237382,63.445410345169066,1026.9396551724137,346.6547321878274,4,3
-63.979166666666664,13.226041666666667,-5.8,65.59139994846774,0.15982636457756377,66.17682329427723,980.0646551724138,302.8792496090645,4,3
-63.9875,13.063541666666667,-5.982291666666667,65.58139956856905,0.11560259956290513,55.34343229214904,1104.5673076923076,146.57549249448218,4,3
-63.91458333333333,13.209375,-6.20625,65.56966009113266,0.579051408189713,70.40187843779532,927.24609375,183.6808625692768,4,3
-64.00416666666666,11.696875,-6.997916666666667,65.44775416184152,0.14725319856878982,75.88722743886433,884.9431818181819,373.7568913975868,4,3
-59.432291666666664,3.9291666666666667,-2.1020833333333333,65.38547129422435,3.1060320827110734,86.35396071962296,768.9144736842105,222.562695198272,4,3
-55.30833333333333,-24.204166666666666,-7.113541666666666,65.1055648957012,2.0564438427307925,105.01540676401201,604.9107142857143,222.4391302506523,0,3
-55.81979166666667,-24.598958333333332,-19.298958333333335,65.26222420330822,0.9722227302075432,88.04338946479956,759.4572368421053,299.464171677086,0,3
-43.64791666666667,-16.489583333333332,3.3,65.76180920725432,7.121934413393765,94.31662820665905,682.0494186046511,236.41227656136766,0,3
-51.18958333333333,-10.535416666666666,16.930208333333333,65.55374309396494,5.4367093022444095,101.23272883515904,646.7391304347826,276.3068694605894,0,3
-40.89479166666667,1.5333333333333334,46.76354166666667,64.19726132383965,3.287155079797924,107.20075824228034,602.6785714285714,281.3042482404505,0,3
-30.519791666666666,3.934375,55.665625,63.66869433614746,0.6727331295235972,99.26154682859712,655.5555555555555,228.75603491169957,0,3
-31.113541666666666,2.2177083333333334,54.329166666666666,63.853999991010156,1.7218019092627317,93.43357794232277,719.5121951219512,336.9715191043599,0,3
-42.409375,1.6625,44.74166666666667,64.0494305999652,2.3502265465781704,96.25489909286105,702.3809523809524,354.4113065885524,0,3
-49.04270833333333,4.364583333333333,30.215625,64.67200825894913,4.133210748044194,98.62347075304224,660.4166666666666,255.49926405893837,0,3
-44.0875,-11.338541666666666,25.63125,64.44188236644942,4.609890317064125,104.24212644188822,621.09375,274.9081840196058,0,3
-30.584375,-24.29375,35.9875,63.71480294747535,2.7891026689099374,105.27791611234032,595.6632653061224,179.31914236273923,3,3
-47.936458333333334,-6.414583333333334,40.07395833333333,64.37679780167453,2.6993032685579204,103.19996107150284,627.3271276595744,248.22099706340742,3,3
-46.27395833333333,-4.080208333333333,44.03125,64.04243496403569,0.7387087003177889,107.81657219137968,598.2142857142857,252.25827370702004,3,3
-46.8875,-4.441666666666666,43.45520833333333,64.09848411697394,0.543867851020459,104.8812075242622,609.6938775510204,256.62605790088816,3,3
2.909375,-51.73125,31.504166666666666,62.56867022482227,1.8240425700732812,106.1203907491663,606.5051020408164,253.9963782345134,3,3
-12.05,-53.22604166666667,22.648958333333333,63.071908038793346,1.074825418069566,108.51719390626121,582.1875,170.08284108525663,3,3
3.705208333333333,-53.659375,31.559375,62.52559737114328,0.5483749158636053,102.42573822510606,635.9707446808511,292.8158568435489,3,3
-42.24583333333333,-19.564583333333335,30.6125,64.02932444138423,2.2069462113872285,106.50529503817593,584.0625,157.0610328772525,3,3
-54.395833333333336,-4.739583333333333,34.186458333333334,64.42535503798749,0.407843796807017,108.24257579931802,578.125,185.83899701757971,3,3
-45.56041666666667,-0.3625,44.84166666666667,64.05164123290571,0.9419423396004837,103.70934246637273,613.9322916666666,249.59450159421343,3,3
-43.52291666666667,-0.4583333333333333,46.889583333333334,63.98308825754839,0.4029065567091268,102.71930800007208,617.5130208333334,254.4688682731402,3,3
-50.677083333333336,-3.042708333333333,36.534375,64.28120188903478,0.9365274695118444,99.26904488271272,655.9027777777778,293.75604442524,3,3
-54.87708333333333,-10.263541666666667,21.480208333333334,64.84243285716722,3.466888782529296,105.06823314625848,619.3484042553191,300.1906521686784,0,3
-50.342708333333334,-32.271875,18.083333333333332,64.4423467999218,2.00275366731476,87.87692606895617,736.328125,247.90033748205738,0,3
-44.28958333333333,-33.11145833333333,25.504166666666666,64.34933269823709,2.7412447826237503,85.39996080279222,787.4177631578947,261.31741742950675,0,3
-57.41041666666667,-8.878125,14.139583333333333,65.09187097004475,3.461303986319637,103.06180792125583,620.4427083333334,229.88835027122516,0,3
-51.20729166666667,-12.141666666666667,17.455208333333335,65.84880022578855,9.389493711458712,100.91548900235328,643.0555555555555,271.2473161785953,0,3
-37.053125,6.476041666666666,43.715625,64.39129745630991,4.099463813681375,103.01766369048136,621.0106382978723,222.96740034553883,0,3
-27.65,3.6666666666666665,56.98125,63.62186534234922,1.0556989911821337,105.4506225090562,614.2578125,225.93399157836325,7,3
-35.86666666666667,-6.583333333333333,52.10208333333333,63.70199326214268,1.4030518272423966,111.50414611741083,575.1201923076923,197.64235376052375,7,3
-47.03333333333333,-15.708333333333334,29.675,65.00388449663212,5.766750992992128,98.86237825383014,653.8194444444445,203.9020321315763,0,3
-47.94166666666667,-5.229166666666667,36.65416666666667,64.4991070553867,3.3289421329352606,105.99327735961118,606.1862244897959,271.6178291592573,0,3
-37.626041666666666,0.06770833333333333,49.971875,63.89178174903906,3.612423000308754,102.56583601879333,616.8619791666666,237.33722025215783,0,3
-38.3125,1.4,50.891666666666666,63.72086087928015,0.31592003749599795,98.80554136788898,655.2083333333334,283.09840834384465,0,3
-38.371875,3.2666666666666666,50.78854166666667,63.835280241326,1.3981820975972032,84.98537507737555,774.671052631579,314.7931069272624,0,3
-37.55625,-8.084375,38.66875,64.32491115979155,5.022301526019471,98.32141937327638,658.3333333333334,298.97953216467687,0,3
-54.32083333333333,2.972916666666667,13.211458333333333,65.71457637628664,7.899345543684188,96.36330424584395,673.2954545454545,276.2701080496118,0,3
-63.23854166666667,-4.675,13.43125,64.95327803968021,0.9035837352809482,106.34086532476036,598.8520408163265,220.7060056965393,4,3
-63.03125,-4.019791666666666,15.021875,64.93933907436455,0.4412942155866156,97.37861775035468,674.3607954545455,311.8998597772526,4,3
-62.96145833333333,-3.95,15.1875,64.90537149109045,0.30963947349125925,92.23823632713105,696.4285714285714,288.1210980636272,4,3
-48.264583333333334,38.909375,12.280208333333333,65.00327053341906,2.905782159614554,94.60632561589927,701.264880952381,386.95686266956574,4,3
-46.780208333333334,43.865625,10.998958333333333,65.06697161899676,0.3772655996363143,98.76605017466608,664.0625,293.1606687278385,4,3
-46.0625,44.153125,11.311458333333333,64.80533873180211,0.3642186015595526,95.81743683881575,680.2325581395348,286.26887674294375,4,3
-45.822916666666664,44.530208333333334,11.392708333333333,64.90830797027387,0.3887669860135308,103.53282742575193,611.328125,232.09216260246566,4,3
-45.446875,45.02291666666667,10.884375,64.89519365957705,0.3280089724279631,98.43372820794592,653.8194444444445,265.15458010268617,4,3
-45.760416666666664,45.0625,9.665625,64.94958890390306,0.28843176083879896,99.40874309941152,656.25,284.7789962489254,4,3
-45.903125,45.026041666666664,9.18125,64.95340128954571,0.23146832593560837,99.5813651990556,633.8315217391304,198.57347156936925,4,3
-45.978125,45.005208333333336,9.0125,64.9670229604462,0.11406572750697268,99.07357288954304,659.4460227272727,308.3021095781682,4,3
-46.44895833333333,45.02916666666667,6.748958333333333,65.07906472955956,0.25560501912125266,98.36402273427112,672.5852272727273,321.57075257225074,4,3
-45.715625,45.4375,8.372916666666667,65.00108504442609,0.38131532964444,104.10994668634623,616.8619791666666,255.87349091116064,4,3
-44.526041666666664,15.3375,29.9375,65.04047871677557,5.374097129689038,99.6414199258224,652.7777777777778,270.5304067832638,0,3
-45.82395833333333,2.0083333333333333,44.651041666666664,64.01995117206437,0.35942351040141335,100.6748857168563,637.9076086956521,302.35260986874994,0,3
-42.889583333333334,2.034375,47.259375,63.926298095484945,0.41492385710935015,104.1929822324551,610.3515625,256.7044815044492,0,3
-39.35208333333333,2.8135416666666666,50.12291666666667,63.82272973958461,0.6485575697470409,94.27076376766712,683.8662790697674,318.131914159123,0,3
-39.01145833333333,-27.016666666666666,15.721875,64.22108220188468,2.6646796215377377,97.36534577771803,666.5482954545455,303.5603592617394,0,3
-38.21875,-4.010416666666667,11.275,65.43050496219445,5.874118690684433,99.7697548632456,645.7201086956521,249.48949613271404,0,3
-32.34166666666667,56.25833333333333,13.152083333333334,69.62410295821294,12.186182226774879,102.60306230625402,627.6595744680851,281.9661775315245,0,3
-47.93541666666667,-10.182291666666666,14.483333333333333,65.57480372815883,9.261609346118744,97.95659485955133,684.9563953488372,290.72179007805806,0,3
-33.45520833333333,49.31041666666667,9.907291666666667,64.98095036371633,5.051922719279064,98.8839766530586,669.0340909090909,274.54871798373347,0,3
