ACC_x_mean,ACC_y_mean,ACC_z_mean,net_acc_mean,net_acc_std,HR,IBI,HRV,label,subject
21.0875,-44.778125,18.151041666666668,63.942120890140345,10.238660853386918,78.81038094636891,788.6284722222222,204.7667172226553,0,7
43.05833333333333,-21.203125,32.625,62.968939717993244,3.378412712857998,81.98220548526318,759.2147435897435,187.1741961048584,0,7
52.746875,-4.253125,24.438541666666666,63.327671325401,6.204232654834724,94.07844403781051,690.4761904761905,278.1845133640796,0,7
54.35625,-6.084375,26.670833333333334,63.0706014478783,2.906577254473856,95.14309612865681,676.9622093023256,200.15572434505896,1,7
53.114583333333336,-16.948958333333334,28.972916666666666,62.94849437014429,0.4943158894654889,81.8858907039746,793.0743243243244,255.54028156725548,1,7
55.971875,-13.217708333333333,20.186458333333334,62.976383176421194,1.609592189522624,91.6673109441709,702.3809523809524,234.26064283290913,1,7
52.33645833333333,-17.603125,29.927083333333332,62.810063970103165,0.29231388075235065,68.69456945346556,878.314393939394,57.74119335583782,1,7
52.83125,-16.95,29.635416666666668,62.90812565014077,0.37223718169258174,82.28723824371689,739.0625,69.56286644338711,1,7
49.74791666666667,-26.20625,25.860416666666666,62.759716361913846,0.8349663698549226,73.51457126487777,827.6785714285714,135.55505278136565,1,7
48.052083333333336,-33.072916666666664,22.604166666666668,62.57567139799682,0.28124560427236495,73.03504334509245,828.5590277777778,48.340196043990446,1,7
49.528125,-31.203125,22.022916666666667,62.685316815051344,0.6653739274327087,69.54721467422705,874.5265151515151,115.51541470797848,1,7
59.175,-21.565625,-3.1145833333333335,63.10729984962189,0.4413018882572182,80.30449218708688,758.2236842105264,121.6831910597618,1,7
59.02395833333333,-21.679166666666667,-2.392708333333333,62.93566012967699,0.2340243045481132,75.09369755379143,833.0357142857143,183.72814620944402,1,7
61.190625,-11.507291666666667,-5.488541666666666,63.04251255691117,0.9973642823451554,92.40090111233602,715.7012195121952,322.31652060222575,1,7
59.90416666666667,-14.913541666666667,2.28125,62.915163924882464,1.1346173974082487,72.16290090069839,855.6985294117648,215.42728089142454,1,7
55.75833333333333,-17.142708333333335,23.484375,62.89067733310722,0.36256666006945587,68.0123547291949,889.2045454545455,66.75002926029322,1,7
57.672916666666666,-13.930208333333333,20.378125,62.878665448521495,0.4360023848277068,82.07675689331846,771.3815789473684,181.99984685915743,1,7
58.661458333333336,-8.226041666666667,8.40625,63.068267716719404,2.5665847370015844,96.10088624422885,673.2954545454545,251.178183071625,1,7
55.803125,-12.716666666666667,25.759375,62.88217894881943,0.4111820140162689,73.50019784162801,886.71875,341.19745105266935,1,7
56.53958333333333,-11.010416666666666,25.4375,62.99485887907816,1.1188929670413748,70.7430104646867,888.7310606060606,258.5807681786776,1,7
57.66770833333333,-13.947916666666666,7.747916666666667,63.16006409480927,3.3743905928210096,89.6877726875341,708.079268292683,170.77059950779,1,7
60.98229166666667,-10.234375,7.676041666666666,62.999626735418495,1.3852458980062612,93.33902920681422,740.234375,357.1909665971268,1,7
59.65625,-13.483333333333333,14.25625,62.84444005358023,0.5489575138026969,83.27024495501526,795.1858108108108,272.1696798605912,1,7
59.07395833333333,-12.882291666666667,17.315625,62.9410608337302,0.8209158247596229,88.31409004091783,730.46875,287.21854255235235,1,7
58.85729166666667,-12.583333333333334,18.023958333333333,62.89534968409103,0.707098377815919,83.80926898112669,770.5592105263158,264.7042866577721,1,7
57.81458333333333,-12.6875,21.541666666666668,62.99536052992042,0.45548696140537065,84.50090529024058,755.6089743589744,181.8996411233113,1,7
57.96458333333333,-12.761458333333334,21.194791666666667,63.02757081530517,0.28922388391346965,75.01939606618929,821.6145833333334,129.76412323354802,1,7
56.670833333333334,-13.460416666666667,23.513541666666665,62.955317747751074,0.4562626579418402,84.56893026517163,748.7980769230769,262.8409635534586,1,7
47.670833333333334,-31.038541666666667,24.726041666666667,62.620793018411455,1.0600857254344953,69.90408116412563,891.5719696969697,134.18409404154428,1,7
52.954166666666666,-27.694791666666667,14.015625,62.69831883516098,1.0616332909701367,77.06797632268739,818.5763888888889,213.79920590691762,1,7
58.6375,-22.565625,3.1239583333333334,62.959503134356055,0.46873774651822714,82.17436318744781,791.8074324324324,208.0238586827242,1,7
57.907291666666666,-22.852083333333333,6.192708333333333,62.858421980933734,0.7637862267676906,90.41301072893818,720.2743902439024,177.80947932407878,1,7
58.10208333333333,-15.764583333333333,7.271875,62.8178597885778,1.0986885739736472,84.92169496980267,755.2083333333334,239.44623270217306,1,7
60.755208333333336,-11.159375,11.51875,62.871175100964976,0.7989105647490947,77.48916036326357,801.5202702702703,216.803717672294,1,7
57.43958333333333,-13.852083333333333,21.45,62.8902767503504,0.5088453573218257,84.67497788520028,771.7927631578947,301.9218949642171,1,7
56.5375,-14.415625,23.553125,62.934878060687915,0.5114099656922118,89.12257133058284,719.1310975609756,228.53398697595287,1,7
56.686458333333334,-14.278125,23.491666666666667,63.010481037293154,0.3927842269233431,79.96342263112963,782.0723684210526,225.99021968194086,1,7
55.18958333333333,-21.198958333333334,18.477083333333333,62.897394345483825,0.8342119327238054,82.88527816927464,730.46875,94.74630853373249,1,7
55.559375,-28.109375,7.915625,62.79622740038651,0.4126531379744069,66.75315610311921,930.17578125,244.15095744264713,1,7
54.95104166666667,-28.715625,9.952083333333333,62.802492683074405,0.3832920458166275,69.12646484514003,885.4166666666666,153.54096880494959,1,7
54.58958333333333,-27.472916666666666,10.376041666666667,62.83349169635032,1.7088094036516253,76.57928844238693,831.25,236.64646841022036,1,7
48.19375,-32.36145833333333,23.560416666666665,62.65750092239922,0.35805468791610856,70.16233374609449,880.6818181818181,122.65873803209048,1,7
52.427083333333336,-27.595833333333335,16.353125,63.2876844658919,3.9305474528414184,78.02207968448708,829.9107142857143,252.41537694519,1,7
50.969791666666666,-8.044791666666667,9.059375,63.80474849597451,5.978338205452413,92.57952543199086,694.5684523809524,308.55937694487545,0,7
49.10520833333333,-35.66979166666667,-16.007291666666667,62.82470898259668,0.6264180595814294,90.3722041843697,730.46875,307.3595644240614,5,7
50.41354166666667,-33.80416666666667,-16.460416666666667,62.906435709866656,0.40585869513100875,102.40873576819706,632.4728260869565,290.2588793024063,5,7
44.34375,15.083333333333334,35.967708333333334,63.315849346012875,2.2481688681386123,88.0021388781289,749.1987179487179,341.8946641126243,0,7
37.98020833333333,17.140625,47.35104166666667,63.12740686774592,1.0379678001099533,67.38851886469546,953.125,306.41983767064335,0,7
41.690625,10.633333333333333,45.225,63.108431778663665,1.36389641753126,81.28681862550977,810.7638888888889,271.13507687260653,0,7
47.54895833333333,6.126041666666667,40.959375,63.10945650950372,0.35887427007887984,60.11938466389043,1046.2962962962963,246.78674177001798,0,7
53.184375,6.973958333333333,26.6125,63.15331363943169,1.792524205202794,74.43348587277876,868.1066176470588,298.10600044279556,0,7
59.729166666666664,-16.365625,6.488541666666666,62.850085364863574,1.3416791578824028,88.5861495859439,721.4176829268292,216.28070591247848,0,7
60.15,-16.986458333333335,4.641666666666667,62.676654860178935,0.34226286877564754,79.87746108365664,832.5892857142857,328.01556298264796,3,7
60.046875,-17.534375,4.98125,62.75777138679188,0.2986869540201875,90.54967296980105,730.46875,290.4802162103564,3,7
60.00833333333333,-17.925,5.302083333333333,62.856003478098366,0.1823278035710321,86.02820711218324,770.1480263157895,286.7103211902687,3,7
60.005208333333336,-17.789583333333333,5.427083333333333,62.824748872508486,0.1365190081213205,74.24053677066941,875.0,305.8247007005709,3,7
60.01354166666667,-17.223958333333332,5.811458333333333,62.70903047028647,0.15611686867599303,70.39677229017313,928.22265625,297.63008812087315,3,7
60.026041666666664,-17.06875,6.016666666666667,62.696344596928654,0.1727209208780104,82.35504875173032,815.9722222222222,290.9056824323454,3,7
60.00729166666667,-17.029166666666665,6.876041666666667,62.75589491432329,0.11966690886949984,79.85496228339095,817.8571428571429,259.44364789646227,3,7
60.015625,-17.051041666666666,6.910416666666666,62.77361521386035,0.15242369303689066,81.95505584191437,829.0178571428571,342.8087045341931,3,7
60.063541666666666,-16.682291666666668,6.458333333333333,62.67782480635707,0.44565780251737,75.13394921512787,871.3235294117648,314.7292645166347,3,7
60.196875,-16.2125,6.069791666666666,62.64500170221977,0.4203312926124684,86.8833374846836,752.0032051282051,273.60779471525905,3,7
59.95104166666667,-17.722916666666666,7.526041666666667,62.973137972105185,0.25928223914693893,78.89896828663565,852.9411764705883,352.3796269865094,3,7
60.0,-17.303125,7.0625,62.84531546625417,0.1394594815423053,72.33595359119136,917.8427419354839,287.31878346765524,3,7
60.03333333333333,-17.288541666666667,7.378125,62.91619986347432,0.31577112917225053,93.18697116064212,709.4494047619048,282.46477157316104,0,7
58.30833333333333,-20.2125,-10.177083333333334,63.03361711870951,2.2249972880729816,100.40421024536185,632.6462765957447,209.4667425545473,0,7
57.66770833333333,-22.126041666666666,-12.638541666666667,63.05470791859804,0.44094704930303275,87.29629240379268,750.0,321.88817359347354,7,7
58.010416666666664,-21.229166666666668,-11.767708333333333,63.03357157888368,0.7860103962931717,91.9343507173245,719.5121951219512,336.01924877434476,7,7
46.751041666666666,13.65625,30.895833333333332,63.360402063567676,3.5788837193155936,89.7327416978164,741.40625,316.69855819504534,0,7
40.08645833333333,18.565625,45.177083333333336,63.20441137794907,0.40348362252993886,89.0930623098977,729.296875,298.79817361840134,0,7
39.884375,18.860416666666666,43.98125,63.24086791285624,1.6475741648470188,85.69234930260895,765.224358974359,293.44670442657167,0,7
43.24583333333333,18.859375,41.672916666666666,63.197515773137084,1.1779396295042452,59.51048088019598,1016.7410714285714,148.71897046418096,0,7
53.489583333333336,3.419791666666667,20.270833333333332,63.155493109233184,2.589510596541218,84.16883721622779,773.0263157894736,298.13920018308687,0,7
60.561458333333334,-11.75,11.965625,62.85774505761383,0.5280968396262096,67.51472155495017,973.4375,238.16971138751828,0,7
60.99375,-11.121875,11.08125,62.983371158349094,0.1028714228411409,55.59859482811396,1098.5576923076924,177.96045031129808,4,7
60.99583333333333,-11.05,11.160416666666666,62.986713356980935,0.09673237401687837,62.33251731629054,996.2284482758621,207.83515585417348,4,7
60.99166666666667,-11.010416666666666,11.357291666666667,63.01136603790755,0.12926086091098324,63.28467563452636,983.3333333333334,149.897819004285,4,7
60.994791666666664,-11.007291666666667,11.40625,63.02275616212094,0.11599883553586807,58.93388827157441,1030.6919642857142,105.84584079636234,4,7
60.985416666666666,-11.013541666666667,11.7375,63.07526204037567,0.14385248674838486,59.554569792367815,1018.9732142857143,100.76924903424617,4,7
60.99166666666667,-11.021875,11.785416666666666,63.09156909717024,0.11525561588263343,63.761541229560905,952.116935483871,83.31705570189894,4,7
60.93125,-11.267708333333333,11.540625,63.034420283971095,0.2358165890972838,70.81172934875798,907.2265625,290.3028912174206,4,7
60.53333333333333,-11.917708333333334,12.039583333333333,62.86382061279083,0.4323574480165552,71.79872968346602,889.6780303030303,226.81491865443672,4,7
60.290625,-11.9,12.675,62.75030200013228,0.44792918956254096,65.08137623908968,949.0927419354839,96.90859632492186,4,7
60.27708333333333,-11.7625,12.85625,62.74779823762858,0.42970881209168554,67.35375982208114,931.4516129032259,192.6379375927806,4,7
60.255208333333336,-11.644791666666666,12.944791666666667,62.72293098932014,0.4077005955979797,64.85525738602753,961.1895161290323,189.915002917972,4,7
60.16979166666667,-11.730208333333334,13.001041666666667,62.66775635074192,0.35826754069219136,64.25343872651925,982.2916666666666,170.42392946050327,4,7
60.22083333333333,-11.744791666666666,12.98125,62.7154255059899,0.39710863664564755,63.39536620881728,999.4612068965517,226.42776165920995,4,7
56.858333333333334,-4.470833333333333,20.652083333333334,62.92904942123015,1.3382783493630033,86.35351175401648,749.599358974359,296.0080832711196,0,7
50.65208333333333,5.0375,37.33229166666667,63.13171148762147,0.37711135896188475,78.04987763089764,829.4642857142857,277.3421318304078,0,7
49.078125,6.221875,38.51145833333333,63.19256549089202,1.4269285240179639,77.39876136947399,848.2142857142857,382.0849554004742,0,7
46.438541666666666,1.75625,23.523958333333333,63.36893280459103,4.961646756930585,87.86187142444543,760.0160256410256,351.72236862163857,0,7
27.401041666666668,-54.33958333333333,10.103125,62.867295262065575,4.117171735419113,91.64308032919509,693.8244047619048,240.74177559211427,0,7
25.677083333333332,-54.86770833333333,8.525,62.76808405808205,2.0956101762684494,88.01553666484799,722.9420731707318,259.6290171812465,0,7
44.32395833333333,-38.075,14.382291666666667,62.82756730311173,2.8811375252897573,88.18256321316251,699.0327380952381,158.67027957986087,0,7
52.3375,-12.086458333333333,29.225,63.02750447611524,3.9493317384009,100.52058439585629,661.2215909090909,372.5772634284562,0,7
45.440625,0.21145833333333333,41.91979166666667,63.00180721145239,2.023403837840248,116.01936778077965,542.2453703703703,183.1124826683376,0,7
40.18541666666667,11.196875,43.217708333333334,63.34980588054358,7.395523075761007,108.98388495850773,563.1009615384615,113.0128560706918,0,7
43.29895833333333,8.841666666666667,44.8,63.125080130909694,1.0349557798429487,99.09182580694294,615.234375,97.2047408084518,0,7
43.7375,4.332291666666666,44.365625,63.054430076918194,1.958766025256789,94.98477060582115,657.6388888888889,200.12536021488228,0,7
46.092708333333334,-11.710416666666667,40.532291666666666,62.778908039355564,2.1584034345176977,103.49353308212721,605.1432291666666,201.43012208318498,0,7
49.621875,-12.089583333333334,36.43333333333333,62.82140118986839,1.0496479766746178,98.25275839179636,629.6542553191489,179.16245360735795,0,7
35.04895833333333,-38.303125,9.994791666666666,64.12456773846074,8.61159706571475,107.38742859756324,593.1122448979592,264.8771641900732,0,7
55.83229166666667,-28.570833333333333,-1.1208333333333333,62.85589145317046,1.2060754373528364,110.01150903652022,565.2043269230769,175.60840494479447,0,7
55.43541666666667,-23.769791666666666,-10.785416666666666,63.52669916867995,9.96897024431502,105.54287447862698,595.625,197.64235376052372,2,7
56.3125,-22.455208333333335,-7.544791666666667,63.46342135750568,8.579553189591296,97.77733448306553,645.7201086956521,190.25750094718126,2,7
56.3625,-20.572916666666668,-8.545833333333333,63.741338655099455,10.570698327101656,104.06970769044445,613.6067708333334,209.86664252871773,2,7
56.446875,-12.442708333333334,-7.875,64.10364854750586,12.75846749801286,106.86259699275952,594.375,198.58545926150293,2,7
56.490625,-24.077083333333334,-6.334375,63.175911155357866,6.854445007219521,102.84091462383499,615.5598958333334,217.03353929946186,2,7
56.873958333333334,-17.936458333333334,-9.441666666666666,64.00280207764312,11.285576763139192,102.4412235558773,630.6515957446809,233.59244355821966,2,7
56.58125,-5.953125,-9.808333333333334,63.83713580045715,10.265551671845351,93.44792931061713,699.4047619047619,292.36790521011574,2,7
56.08020833333333,-22.20625,-3.339583333333333,63.762830902666366,10.231199193869806,104.54549697265594,624.3351063829788,239.22739588712415,2,7
56.39895833333333,-15.240625,-4.729166666666667,63.97705434587917,9.546981227474836,110.38868740272235,580.625,235.08608117288546,2,7
51.958333333333336,5.066666666666666,-15.194791666666667,64.3516157500421,12.81193162741666,95.46246998110433,669.3892045454545,213.13655087023537,2,7
56.26354166666667,-21.052083333333332,-0.5322916666666667,63.15688025583917,4.56117415617153,84.78151508237741,762.4198717948718,158.35344040726048,2,7
56.36666666666667,-27.777083333333334,-1.8604166666666666,62.88698084608221,0.6743318158164215,99.64393768301501,651.7361111111111,252.60538698549342,2,7
55.87083333333333,-28.570833333333333,-3.7729166666666667,62.88624907706162,0.7337758634394258,107.69508380280752,586.875,203.00231773960874,2,7
55.110416666666666,-29.6125,-5.710416666666666,62.859310977652484,0.7135171673550273,99.979483592234,648.6111111111111,276.93581955646164,2,7
55.04375,-29.93125,-5.380208333333333,62.89599384278969,0.5601340861149334,102.73642479420705,620.1171875,242.28667753106558,2,7
55.49583333333333,-28.739583333333332,-6.566666666666666,62.862172086760324,0.6641314136006508,96.64432644334225,669.7443181818181,271.5858192077919,2,7
55.62083333333333,-28.80625,-5.26875,62.87080962704494,0.6557795665257153,83.1887241353141,774.671052631579,267.9745057395411,2,7
55.271875,-29.428125,-5.144791666666666,62.85134652018039,0.6364869206890537,92.37648805210891,696.0565476190476,311.3546082414242,2,7
55.895833333333336,-28.559375,-3.6802083333333333,62.90657350753784,0.6377770305814655,103.35015031037403,615.8854166666666,241.61039253706554,2,7
55.7,-28.941666666666666,-3.9541666666666666,62.909764922941356,0.6098311298414354,101.19513355859614,643.3423913043479,309.02582708497937,2,7
55.978125,-28.35,-4.132291666666666,62.90057986219799,0.5758787481623763,100.55977426882802,653.125,302.19148077193756,2,7
56.09791666666667,-28.027083333333334,-4.436458333333333,62.88800783539116,0.4868389491878948,93.9684557358695,697.5446428571429,296.36308559956916,2,7
43.296875,-32.7375,5.186458333333333,63.87748506546239,9.143999947777903,92.62692557984485,686.4098837209302,239.41748270914908,0,7
33.1625,11.077083333333333,52.40625,63.05617699427618,0.6935725387551979,87.690809202944,738.671875,269.5087492930662,0,7
29.089583333333334,11.283333333333333,54.878125,63.14266568861937,0.50684784230657,90.24922375103219,722.65625,299.3319384479378,0,7
33.59166666666667,10.676041666666666,52.045833333333334,63.02529001087863,1.6568375633443984,91.63506900718438,707.5892857142857,242.1598381134286,0,7
37.579166666666666,8.389583333333333,48.409375,63.077690072809915,2.0680643313340967,85.23968041287121,766.4473684210526,247.94606012822246,0,7
40.459375,2.509375,38.028125,63.097533503015406,3.6714289909853965,90.30379293698209,732.03125,254.3196523608097,0,7
50.327083333333334,-20.459375,2.30625,63.33053277283861,4.561943340479922,96.48441545351282,676.8465909090909,293.4316836670013,0,7
52.98854166666667,-32.225,-10.396875,62.90309049314971,0.6560282595176381,98.67298158589169,656.9602272727273,283.48193848581326,6,7
54.16458333333333,-30.984375,-7.1625,62.90534071982675,0.6984988111474717,101.60899364091956,647.4184782608696,308.5778169234177,6,7
56.51770833333333,-17.502083333333335,6.984375,63.28708838038201,5.911382607623805,104.06504770802168,622.0079787234042,229.7898415152136,0,7
60.43125,-8.9,9.726041666666667,63.0162329431232,2.8543114741330964,84.19045286433621,763.9802631578947,290.1987574653956,0,7
58.38229166666667,-10.51875,11.841666666666667,62.88396257750053,2.41478961502767,90.7980279210956,737.5,317.9414077814516,0,7
60.58958333333333,-7.302083333333333,-5.144791666666666,63.06207047730369,1.8922144299509522,96.41714930373213,664.0625,235.31787089673418,0,7
60.821875,-11.667708333333334,-11.217708333333333,62.94972488649944,0.42799343534652967,94.16774293639992,689.6802325581396,247.22934560920788,0,7
61.04895833333333,-11.591666666666667,-9.552083333333334,62.875892250464666,0.3264179957633118,91.24188359015446,735.9775641025641,323.5505062562631,0,7
61.46875,-12.371875,-5.285416666666666,62.952968087065756,0.5162531958399806,87.70007977717147,740.3846153846154,297.9658801058215,0,7
61.296875,-13.352083333333333,-2.701041666666667,62.87223467791871,0.723721819059362,95.42757409279352,681.547619047619,294.13449473132806,0,7
61.60104166666667,-12.554166666666667,-2.792708333333333,62.94056390406592,0.504148230379873,87.70976466306806,736.328125,257.1956246574749,0,7
61.744791666666664,-11.951041666666667,-0.38125,62.99382737717555,0.9992725894080637,96.1328966137639,694.1964285714286,296.9251401817489,0,7
60.954166666666666,-13.7625,3.909375,62.97746686630621,1.3260689159959103,89.70790385444448,734.765625,261.0968680762578,0,7
57.19375,-14.815625,21.370833333333334,62.892970676886215,0.8887431779379573,93.34715157913837,691.1337209302326,240.6283820108648,0,7
56.69375,-14.247916666666667,23.469791666666666,63.00137778155236,0.4769059580125627,91.04891471646653,718.3689024390244,285.1187903477689,0,7
56.434375,-13.752083333333333,24.189583333333335,62.93028983678294,0.4263168522283081,87.64743580194823,756.8108974358975,340.0386521421613,0,7
56.16979166666667,-14.233333333333333,24.372916666666665,62.87515156337122,0.45609671828590187,90.40551045161025,729.296875,262.47185822899087,0,7
55.946875,-14.964583333333334,24.554166666666667,62.928031810775515,0.4757668427830225,87.6677611500776,731.640625,273.9321304618335,0,7
46.25,-21.933333333333334,19.486458333333335,62.88178291525233,3.734847484491568,91.13904897841668,708.4603658536586,264.784976885727,0,7
58.971875,-21.902083333333334,0.41041666666666665,62.923517536717135,0.34866288367370774,95.38270705968526,690.1041666666666,266.1401031354561,0,7
60.244791666666664,-14.489583333333334,8.703125,62.87621786440555,1.584422208401298,99.45868510579501,648.9583333333334,255.49926405893837,0,7
60.27291666666667,-10.85625,11.714583333333334,62.96361543182367,2.2429998707274765,98.12874158239036,654.8611111111111,236.2143732155949,0,7
57.128125,-19.257291666666667,8.342708333333333,63.189757196407726,5.648506627924295,101.61344463730404,615.8854166666666,191.84082099074809,0,7
60.26770833333333,-15.046875,8.777083333333334,62.736824616517836,0.46681941863585874,82.4499817071929,796.4527027027027,295.86817576507883,4,7
60.50208333333333,-14.833333333333334,8.571875,62.88399394322137,0.49389345905613896,81.4195423227914,829.9107142857143,266.17859699142514,4,7
60.66041666666667,-14.411458333333334,8.567708333333334,62.93868147737128,0.4648912668568978,82.7637586464522,805.9895833333334,324.03918758274557,4,7
60.79479166666667,-14.210416666666667,8.138541666666667,62.96409672335291,0.38679082924966146,79.2041559478266,827.6909722222222,296.0750500597056,4,7
60.967708333333334,-13.929166666666667,8.0,63.04886083186241,0.17824927614050276,88.65595782128207,757.8125,324.8610994759186,4,7
60.99375,-13.471875,8.0,62.97593584492668,0.12601371226253918,69.7192171190106,940.5241935483871,254.5644513592449,4,7
60.99583333333333,-13.392708333333333,7.91875,62.951301249195325,0.1178107227390069,77.49555248878988,825.8928571428571,296.0151052820566,4,7
60.99270833333333,-13.355208333333334,7.838541666666667,62.930808906765535,0.14346430505495,77.54508629280686,841.0714285714286,325.2014364431774,4,7
60.99166666666667,-13.45625,7.603125,62.92394639457769,0.15441869159159063,80.72965976971616,808.1597222222222,308.0599757526354,4,7
61.001041666666666,-13.140625,7.632291666666666,62.86892967870231,0.13218442060236746,74.8388052991708,842.4107142857143,271.1101055627313,4,7
61.020833333333336,-12.964583333333334,7.020833333333333,62.77784652076428,0.15243429851894993,78.3475792751228,833.6397058823529,296.76283766364986,4,7
61.015625,-13.0,7.120833333333334,62.79235107544343,0.14726875067868472,81.46824274949125,807.2916666666666,312.2878744329615,4,7
61.009375,-13.045833333333333,7.153125,62.798932488938526,0.11326186358255484,73.77674289209992,870.7386363636364,293.37211814865987,4,7
61.00208333333333,-13.259375,7.346875,62.860698189355546,0.13431237254725567,85.32710606739354,779.1940789473684,361.22467588689824,0,7
46.911458333333336,14.058333333333334,35.342708333333334,63.367267964150166,3.608984265171628,88.1544531346078,743.1891025641025,382.02708768316955,0,7
43.890625,14.215625,43.025,63.10960076266451,0.3639481333380201,97.09677960594227,682.7761627906976,288.19145628590456,0,7
41.05,13.35625,46.103125,63.17193124486245,0.41056196573110826,96.69669884614623,673.2954545454545,253.42852531208956,0,7
45.411458333333336,15.166666666666666,39.171875,63.27137898992441,2.069947836706479,87.07164730533975,774.671052631579,339.13128661450696,0,7
41.41041666666667,-30.642708333333335,11.789583333333333,63.21659841234919,6.590098140779336,97.5706845963315,661.2215909090909,267.5099840562357,0,7
