ACC_x_mean,ACC_y_mean,ACC_z_mean,net_acc_mean,net_acc_std,HR,IBI,HRV,label,subject
40.172916666666666,35.55833333333333,17.104166666666668,64.17975649582031,9.865475464325591,88.07001762210139,714.1768292682926,199.21109053903098,0,8
39.15833333333333,19.0125,33.03333333333333,64.80169303953897,13.358711110833251,102.64989030560315,629.7554347826087,265.32867458221625,0,8
31.76875,-5.710416666666666,30.713541666666668,63.827585567897344,7.37582959669001,86.02265666123081,743.1891025641025,267.61301335653155,0,8
41.3375,4.780208333333333,-47.16458333333333,63.02136449589261,1.048963969438161,84.3265674933545,775.9046052631579,245.21659017687404,0,8
22.630208333333332,-9.715625,9.765625,63.853101685560965,8.616792527776546,94.68131689674681,686.3839285714286,255.2446257586211,0,8
41.3,-13.336458333333333,-45.421875,62.99837595121941,0.7829181580176966,75.08129408338198,847.4264705882352,226.9499364931447,1,8
38.50729166666667,-16.338541666666668,-47.057291666666664,62.997124571603266,0.3937055285812388,63.966172592450434,958.6693548387096,213.05839623993535,1,8
38.33020833333333,-14.023958333333333,-47.9875,62.9989224236933,0.32330087143928066,66.37224263917096,911.1328125,134.46991209212757,1,8
38.11145833333333,-33.2875,-9.120833333333334,62.94783033716325,6.506793694058799,78.5888465963703,803.6317567567568,159.0887953052215,1,8
36.70625,-50.16041666666667,6.701041666666667,62.54440706207481,0.5002701804881056,65.08807294681758,940.0201612903226,199.0987179244675,1,8
40.66041666666667,-46.134375,9.035416666666666,62.500078444050494,0.5318860976446967,65.76161658927981,924.31640625,145.8753299744727,1,8
39.87916666666667,-45.24270833333333,11.683333333333334,62.5533299071695,1.370325700267571,76.20434637530101,822.4826388888889,136.77772962521553,1,8
39.151041666666664,-48.126041666666666,6.010416666666667,62.33251744227649,0.3490739773044347,69.41658857526677,867.4242424242424,85.84867568685902,1,8
38.854166666666664,-48.55520833333333,6.11875,62.490057477665395,0.44954581310058944,69.14151770251861,869.4852941176471,47.81259284007623,1,8
39.234375,-46.354166666666664,3.7354166666666666,62.488767679175844,1.275064287786223,77.40102089542692,811.6071428571429,159.32182648144084,1,8
40.66875,-39.13333333333333,6.690625,62.72740566793048,1.8519907768532493,81.79527691539737,787.7604166666666,222.59064666365222,1,8
50.213541666666664,-17.135416666666668,32.39375,62.74886460973946,0.7386576937853394,72.97829553465074,844.6428571428571,212.5229766989913,1,8
47.76979166666667,-34.359375,17.201041666666665,62.70952563845696,2.3232920320909183,82.07091412428925,772.3817567567568,203.65848745851207,1,8
46.95729166666667,-38.380208333333336,13.091666666666667,62.70616207967039,2.0273514507291894,67.46586175996859,904.8295454545455,171.0741284410796,1,8
55.78854166666667,0.8,24.05625,63.340813030640156,3.798128436149357,81.8879831034242,776.3157894736842,244.1108512250342,1,8
56.885416666666664,1.6979166666666667,26.939583333333335,63.10657731292746,0.8835910710521784,74.61257394776142,833.9285714285714,249.1656573771283,1,8
57.853125,4.986458333333333,23.646875,63.202829163965404,1.2396615145288095,76.92619752185531,799.9131944444445,208.83125022713568,1,8
58.27708333333333,10.907291666666667,4.68125,63.19530129184215,2.374065352925355,76.6822449838209,830.8035714285714,328.84637091165337,1,8
47.58541666666667,-37.43333333333333,-2.2645833333333334,62.826818466702974,1.3953964855733938,74.73271793935278,834.8214285714286,202.8773943354778,1,8
42.33229166666667,-45.946875,-4.107291666666667,62.6618090999098,0.4729925930996331,69.7464905907093,880.6818181818181,133.69993039160025,1,8
39.58020833333333,-47.65,7.720833333333333,62.494866218312715,0.4621378097452758,69.61379515784411,863.9705882352941,56.85959664876814,1,8
48.60625,-17.276041666666668,20.061458333333334,63.09726780458753,4.7615434048386405,87.23258104717743,726.5625,207.7114114552158,1,8
50.063541666666666,-27.248958333333334,8.472916666666666,62.935109749237164,2.951885417515348,83.56538311701676,767.6809210526316,229.7832869307572,1,8
49.728125,-30.43125,3.921875,62.82191246825668,2.7926654825386232,82.62211446167359,762.0192307692307,164.03312706985687,1,8
50.484375,4.466666666666667,-13.934375,63.237566449431625,2.516566355252033,87.08707184648199,735.546875,234.36164491864784,1,8
59.50625,6.094791666666667,-19.171875,63.15200524420311,1.6384902510571504,85.05560518676582,756.1677631578947,318.0047262418629,1,8
43.53958333333333,-36.325,1.6010416666666667,62.80387321861454,4.767464428134114,78.18576269667689,786.3175675675676,194.54711141270585,1,8
40.93958333333333,-47.188541666666666,3.6635416666666667,62.628854691245884,0.4649122456366608,75.23335171162694,803.2094594594595,115.67308497142089,1,8
37.635416666666664,-47.942708333333336,-1.28125,62.59578141230784,1.6015693499114771,81.76996842018627,758.6348684210526,143.04413211700825,1,8
40.014583333333334,-46.59375,-12.329166666666667,62.718729334934956,0.652360287343549,77.30752784728988,802.7871621621622,185.79228105976009,1,8
36.37916666666667,-49.99166666666667,-9.741666666666667,62.6237442993988,0.43539245535855897,69.10013029841322,878.314393939394,133.89950391408289,1,8
37.790625,-43.775,-21.888541666666665,62.92304389934171,1.4870708708228735,75.27278657981168,827.6785714285714,203.14267457040546,1,8
35.73229166666667,-42.057291666666664,-29.804166666666667,62.99117828348335,1.1497282831526017,80.72588497766333,793.918918918919,247.2724473014421,1,8
29.438541666666666,-43.02395833333333,-34.39479166666667,63.093219930024915,1.2701603028124713,85.51156932930432,761.6185897435897,327.3408550148331,1,8
41.49375,-41.84375,-10.021875,62.78554209104303,1.1038173160432763,83.37428616828225,769.0033783783783,240.00755015612418,1,8
47.052083333333336,-37.967708333333334,-16.885416666666668,62.7976587702777,0.4861528961452562,76.21582754515062,812.9340277777778,162.85161135656162,1,8
36.46875,-43.782291666666666,-25.43125,62.88375735550629,0.9600013127464184,82.43373693662367,777.9605263157895,280.27467900716175,1,8
36.05,-39.1375,-24.432291666666668,62.96912046693275,1.8999103367204961,86.49981637360067,749.1776315789474,313.57500907688353,1,8
31.5125,-45.925,-27.945833333333333,62.93873126188113,1.371382688398608,91.31367822029249,730.078125,276.43446895240834,1,8
31.846875,-22.353125,-12.39375,64.14066829383654,9.478467043077087,95.2657505030019,697.5446428571429,329.32959781031286,0,8
49.246875,-12.8625,25.558333333333334,63.18788779708913,6.464502616273663,87.0577067700553,744.140625,272.90183337063036,0,8
58.432291666666664,-16.223958333333332,16.545833333333334,62.90313416321705,0.4255926585177524,92.01387823004984,701.6006097560976,193.17581249020282,5,8
51.39270833333333,-15.567708333333334,24.894791666666666,63.08540411345201,6.284530969700058,87.3157938458009,743.359375,276.094576448417,5,8
39.51145833333333,-7.08125,28.825,64.50179422822835,10.806479522611466,101.87204454443527,638.2472826086956,249.9891490700702,0,8
3.220833333333333,0.06354166666666666,62.99791666666667,63.093631078687984,0.7885697853821348,71.66329805310896,869.3181818181819,203.50025433798604,0,8
2.841666666666667,-0.0125,62.98125,63.058328416206,0.4844763708447501,70.01354632589961,875.4734848484849,212.86374543612106,0,8
0.24583333333333332,-1.2447916666666667,62.83125,63.041325878296476,1.2560612404497276,89.01650245207414,735.9375,188.96330704731122,0,8
31.867708333333333,6.208333333333333,51.85625,62.94116888373019,2.0447822744131603,88.02270247995718,748.7980769230769,247.62440387558104,0,8
36.94479166666667,7.932291666666667,49.985416666666666,62.893181613718106,1.3866169275868785,74.6731823463344,843.75,217.28434943876977,0,8
39.921875,5.307291666666667,30.496875,63.79158793403849,11.214619202355268,95.81359821540823,682.6636904761905,281.2394137574066,0,8
36.604166666666664,9.509375,48.270833333333336,63.422014196652945,5.134969026802394,82.15457647482785,780.8277027027027,229.75776041784147,3,8
33.334375,11.173958333333333,52.08125,62.93517269775894,0.7993982131947,69.9941217562519,911.62109375,262.29830961294135,3,8
34.63333333333333,10.603125,51.44479166666667,62.923920372447974,0.4171270331995038,72.06905726836423,869.3181818181819,171.20786719383693,3,8
17.617708333333333,-30.822916666666668,32.266666666666666,63.079845142209344,3.8276422466345066,80.81905978960751,799.831081081081,203.29186522160146,3,8
34.15208333333333,4.430208333333334,48.713541666666664,63.12581979814238,3.7125406591431225,73.7462943279683,859.375,220.7698951191242,3,8
36.16041666666667,8.995833333333334,50.782291666666666,62.98852337698107,0.3180111961002978,74.14585380180907,833.1801470588235,150.41176123118387,3,8
51.075,6.388541666666667,34.75416666666667,63.068107440630975,0.5703351561671614,74.03082287157119,852.9411764705883,209.15439531490955,3,8
54.775,5.985416666666667,31.023958333333333,63.23757934987575,0.39424988036786995,75.87888603340494,837.5,205.39246305226604,3,8
56.47083333333333,5.444791666666666,27.438541666666666,63.222014122767725,1.134613117862889,73.16484408864693,850.1838235294117,225.92075386408206,3,8
57.065625,5.204166666666667,26.516666666666666,63.14469758818834,0.2421256483239056,68.5524950337011,889.6484375,158.7005415717328,3,8
57.08645833333333,5.322916666666667,26.479166666666668,63.243546123580025,0.917831891619953,76.76133966641117,826.3888888888889,261.3762084074,3,8
56.99270833333333,5.629166666666666,27.0,63.3175920021645,0.08063114019428545,74.01786278511418,837.5,179.3575134948598,3,8
56.98645833333333,5.684375,27.002083333333335,63.317702444094195,0.16398333599416443,71.7458573151647,861.7424242424242,175.78125,3,8
42.725,11.852083333333333,28.941666666666666,63.9052235394458,6.231598594271795,85.19779999956738,762.7467105263158,301.51731299178135,0,8
55.39479166666667,11.169791666666667,9.776041666666666,63.68180558410888,5.7347199188591205,95.82888069544701,670.4545454545455,228.4001009295993,0,8
38.11875,2.3520833333333333,22.767708333333335,63.18449964994391,5.417106760338412,91.07435733432182,710.7469512195122,315.4451065310334,7,8
22.404166666666665,19.685416666666665,55.376041666666666,63.31197086377442,2.8812561516194557,93.26050438577504,691.8604651162791,263.91254723731066,0,8
24.672916666666666,0.475,43.23854166666667,63.27252052375431,4.45996318046343,75.43172587103425,842.4107142857143,253.09719800114223,0,8
17.382291666666667,2.3645833333333335,59.296875,62.9377452752855,1.8429513458788283,85.36473824413324,762.4198717948718,292.3938987445296,0,8
2.904166666666667,2.7260416666666667,62.765625,63.20704906403571,1.2772817295270418,77.92673389009424,804.0178571428571,186.1162172502155,0,8
14.734375,0.7697916666666667,47.2625,63.61743430784612,7.641660078382904,90.55542321550463,733.5737179487179,302.4812582547798,0,8
33.54270833333333,-3.220833333333333,31.546875,64.16133341861931,10.972235898458967,98.55132886360178,674.3607954545455,288.8783000475669,0,8
33.28125,22.821875,48.325,63.16186385821133,1.0045706994084538,86.36654753049174,789.2736486486486,242.6071632847706,4,8
23.827083333333334,12.68125,46.635416666666664,63.02628277419797,4.449973370725735,77.10763898796661,845.9821428571429,245.56615071096422,4,8
26.404166666666665,25.391666666666666,51.12083333333333,62.8945789433079,0.33705520419724816,70.92067674837003,894.53125,212.37469621577316,4,8
27.0,25.090625,51.005208333333336,62.929814517164296,0.14033828877498597,67.06774439229233,918.45703125,202.05596478012177,4,8
27.2,25.046875,51.0,62.994934851514714,0.18723795933226337,70.3388192332323,895.99609375,236.73209899282435,4,8
27.438541666666666,25.128125,50.989583333333336,63.12583585600631,0.23649696378702628,69.51122809097838,879.2613636363636,123.31011029425467,4,8
27.234375,25.28125,50.965625,63.0774065843793,0.2564733687987991,69.68761148525935,882.1022727272727,130.37749428342684,4,8
27.930208333333333,24.982291666666665,50.74166666666667,63.09027756042836,0.3479138036599732,70.62688934726275,885.8901515151515,213.98978007503652,4,8
28.297916666666666,24.791666666666668,50.63645833333333,63.08991944518551,0.360239827529174,75.27320975075492,839.2857142857143,214.62430303254544,4,8
28.044791666666665,24.485416666666666,50.9875,63.14179909845023,0.4826989513326866,73.62953929561756,851.3392857142857,166.67863391471764,4,8
28.425,24.264583333333334,50.86770833333333,63.12485771998421,0.31498068472518653,75.86531948072538,837.7757352941177,232.02738397197598,4,8
28.773958333333333,24.24375,50.713541666666664,63.150609599355555,0.3798120979950192,72.35329388934623,855.6985294117648,138.74479583469832,4,8
28.535416666666666,24.43125,50.78125,63.171880483598414,0.33692160209655797,79.7116905950056,809.0277777777778,209.66464507125934,4,8
29.088541666666668,23.675,50.713541666666664,63.152175841839004,2.069263904897702,81.36006189995707,807.2916666666666,303.3481321612419,0,8
23.005208333333332,-21.863541666666666,26.548958333333335,63.189687156888596,8.483556369896657,96.88114622802736,687.1366279069767,326.64241304065797,0,8
13.747916666666667,-50.18020833333333,32.26770833333333,62.43021041489637,0.8898001002649663,81.02440346130902,773.2263513513514,243.61140557675733,0,8
15.825,-33.021875,42.130208333333336,62.586272199315495,1.850166351040501,75.45384948296227,823.7847222222222,255.8604399514369,0,8
13.497916666666667,-9.340625,51.196875,63.48638284635875,7.118785693658168,88.09334781090901,750.0,326.1808002836529,0,8
14.18125,54.08229166666667,-25.514583333333334,64.73988315470874,7.169860815571,94.78324680817892,667.2585227272727,210.42883868010057,0,8
9.782291666666667,55.51979166666667,-29.232291666666665,63.825027872193154,2.2435519711162675,85.60224492034169,755.2083333333334,274.5688531109897,0,8
10.194791666666667,56.286458333333336,-28.160416666666666,63.76952728540991,0.521909757871714,87.36117687520262,721.09375,266.13121071024824,0,8
12.603125,55.846875,-27.721875,63.77653369335652,2.020365080910233,101.61976383104023,621.09375,185.25641283729,0,8
38.26875,34.188541666666666,-2.165625,68.53413034350812,18.4481271332812,95.25714149992984,701.6369047619048,314.91067137383885,0,8
23.980208333333334,0.8666666666666667,17.85625,71.53662181299002,23.817410254935524,101.98462926530107,637.5679347826087,287.4226194174317,0,8
6.011458333333334,-57.438541666666666,-25.253125,63.45687846991358,1.213891752979508,89.69429068599929,689.360119047619,148.59286637999952,0,8
3.890625,-56.60520833333333,-28.297916666666666,63.447411271686406,0.6148871886893756,83.55352082079186,763.2211538461538,309.9505378887091,0,8
20.523958333333333,-26.510416666666668,23.289583333333333,63.03377931001037,2.0140028707964284,85.58392708806878,733.5737179487179,184.4425890833328,0,8
33.5,-9.24375,51.975,62.70901994291432,0.5058667141725889,88.02221498714712,720.655487804878,220.94324603560528,0,8
37.05833333333333,-15.445833333333333,36.954166666666666,62.994598378291855,3.5665331192970737,90.33113266564548,701.6369047619048,210.2836807076365,0,8
49.922916666666666,-3.732291666666667,37.190625,62.9778196291492,2.410148977072258,89.44909948736279,704.6130952380952,225.42621386241098,0,8
47.92916666666667,8.776041666666666,27.35,64.428105917874,11.148215529934573,92.94196220881469,684.2296511627907,218.6569742675347,0,8
22.267708333333335,42.54270833333333,-0.3104166666666667,68.2455801971416,18.59746712742126,100.98045821233409,649.7961956521739,270.67302948186205,0,8
30.342708333333334,24.495833333333334,-17.711458333333333,64.78081068590242,12.716733734621855,92.87985531997006,684.9563953488372,287.7069648427852,0,8
57.83645833333333,-5.334375,14.295833333333333,64.20253015624245,11.737658264610525,97.72091083581832,670.4545454545455,317.93064721563644,2,8
57.51354166666667,-3.5697916666666667,-2.5854166666666667,65.28373908058812,13.258019396740892,96.962856751525,665.1278409090909,248.21080321835768,2,8
56.04270833333333,-3.605208333333333,10.484375,64.71271018629709,12.281657000488785,104.00561821903709,620.4427083333334,261.4661918516101,2,8
55.166666666666664,-5.051041666666666,7.034375,64.13249952156607,12.811599761531017,91.75295224808312,722.1798780487804,304.6273979183422,2,8
53.303125,-1.4427083333333333,18.119791666666668,66.55205208739702,21.627682599461778,92.67150172949471,690.1041666666666,236.58762492635296,2,8
50.766666666666666,-15.185416666666667,-1.6729166666666666,64.04968136848326,14.566685161551652,96.05614401110665,670.0994318181819,234.48398628815022,2,8
56.16770833333333,-10.192708333333334,6.208333333333333,64.52801183024046,12.820242037614388,85.8807468786009,749.599358974359,252.87461218977995,2,8
49.45520833333333,-2.7,16.855208333333334,64.75490856933708,14.905107609254715,94.32010916528867,683.8662790697674,259.74989043377315,2,8
49.54375,24.110416666666666,9.359375,64.15271437780694,11.078557951866108,92.9276828930736,698.6607142857143,311.31635593975744,2,8
55.03333333333333,-8.757291666666667,3.066666666666667,65.39084171583767,19.4378632577657,93.64592008403343,687.8720238095239,269.0994077190734,2,8
46.68958333333333,19.240625,11.883333333333333,65.28800186941709,15.173673041345596,95.4349146924702,663.3522727272727,240.49660573319127,2,8
33.072916666666664,53.947916666666664,2.2083333333333335,63.5182653013329,1.802421457231329,82.9673099925545,782.5168918918919,331.12877760942354,2,8
32.096875,54.69895833333333,2.830208333333333,63.57389476287192,0.5026062202352003,88.83439773661779,732.03125,282.6155418075125,2,8
31.796875,54.8,0.8479166666666667,63.40964234194866,0.731413972716751,92.85865979146242,719.5121951219512,320.70288710405305,2,8
32.003125,54.72083333333333,2.771875,63.50424223484573,0.7804709121444738,94.62214744995822,704.2682926829268,362.6801141975873,2,8
31.860416666666666,54.717708333333334,2.0072916666666667,63.66870522502038,4.0896383258338815,92.37975744266008,713.795731707317,390.12467958974344,2,8
22.830208333333335,56.53854166666667,-7.510416666666667,63.83826095402481,5.055049129253203,91.49244589682117,707.2172619047619,252.46498187505279,2,8
18.277083333333334,56.55104166666667,-22.442708333333332,63.688479044340134,1.5146959052280555,94.12578288835044,684.5930232558139,271.4586131362079,2,8
16.144791666666666,55.77916666666667,-25.904166666666665,63.64146214508734,0.4480562115953588,88.07412707045663,732.03125,261.34849311937734,2,8
15.023958333333333,55.91041666666667,-26.286458333333332,63.65361889496301,0.7072021692142524,94.71559157811666,669.7443181818181,217.01711883901243,2,8
12.680208333333333,56.114583333333336,-27.313541666666666,63.745280241614985,0.722897123596021,88.9394239933748,709.765625,233.63933689254844,2,8
10.486458333333333,58.001041666666666,-23.951041666666665,63.88103961491861,2.508167202799397,97.07664844763235,669.7443181818181,268.06124560508346,2,8
14.554166666666667,54.584375,-22.379166666666666,64.49761664751561,7.426876090038395,95.71800472851866,679.5058139534884,229.48773504419427,0,8
18.11875,13.884375,37.446875,65.20609982001251,12.41395234924121,90.11097009376249,719.1310975609756,279.71586797476294,0,8
-5.878125,0.9635416666666666,62.88125,63.17897001753752,0.9382150729416677,74.01361842348827,847.3214285714286,294.2633772697613,0,8
-8.379166666666666,0.21354166666666666,62.553125,63.24139010269989,1.2688227659788087,81.05677200706111,779.5608108108108,275.6483046333176,0,8
-14.377083333333333,-1.7072916666666667,61.14479166666667,63.154314480683674,1.7973533713696088,92.82925993875274,707.9613095238095,307.1861469649879,0,8
-8.701041666666667,-0.5614583333333333,57.97708333333333,63.513041333243564,3.903502350670981,84.57062610717963,774.2598684210526,344.8615321420343,0,8
36.99166666666667,10.547916666666667,29.047916666666666,64.54562240385003,11.032344651052789,92.06493530770031,695.3125,288.1934241011095,0,8
19.098958333333332,6.935416666666667,59.552083333333336,62.9336400034945,0.3703569141915103,81.80219328635962,800.2533783783783,427.90032375072155,6,8
19.646875,7.361458333333333,59.26979166666667,62.88345954796312,0.3855389470421086,85.93205154130023,735.9375,187.93352659029912,6,8
27.542708333333334,5.260416666666667,50.65625,63.46928602179723,8.48127487763255,84.65345341677941,773.8486842105264,301.16696595930824,0,8
45.29375,-19.971875,-34.05833333333333,63.005766890974385,2.4455326918411644,85.83948032186642,753.7006578947369,260.0010760437712,0,8
43.526041666666664,-21.109375,-39.891666666666666,62.907306876887496,1.1309619049447974,73.80388404411647,861.6727941176471,264.8719271347776,0,8
40.322916666666664,-30.542708333333334,-36.057291666666664,62.887174365381185,0.6399612004989074,70.32277725137902,888.7310606060606,180.36556844711242,0,8
37.151041666666664,-39.78125,-31.56875,62.94669573257675,0.5163539003481694,74.85415984207877,843.75,203.2310243656364,0,8
38.23125,-36.97291666666667,-33.473958333333336,62.943957177016664,0.5112532619872565,74.8531327349427,853.5714285714286,238.44505278686202,0,8
42.20729166666667,-24.344791666666666,-38.665625,62.981155071799904,1.6092640622016328,74.81782509289451,860.7954545454545,285.9577776279874,0,8
44.503125,-21.44375,-38.946875,62.943566618325725,0.6399255407664913,73.76302849407398,860.2941176470588,306.3673824207852,0,8
46.83229166666667,-10.859375,-37.70625,63.03046358452387,1.5194002062253122,89.65262607684681,731.25,250.89982294502752,0,8
55.53541666666667,3.3375,-29.588541666666668,63.10450531490669,0.5696788225946889,84.14392166144616,781.6611842105264,364.55216243839993,0,8
57.94895833333333,5.626041666666667,-24.373958333333334,63.12407339069737,0.3100810096086067,82.26194854425285,793.0743243243244,361.92295726649866,0,8
57.96458333333333,5.296875,-24.685416666666665,63.2285170425092,0.26506151196581035,81.18124552371484,791.3851351351351,301.9598346692359,0,8
57.51145833333333,5.302083333333333,-25.882291666666667,63.292381539580795,0.4603683830730319,72.02329673085968,852.0220588235294,212.66217630566237,0,8
54.05,-19.752083333333335,-8.029166666666667,62.992635869077226,2.4661696885073607,74.26326556978884,849.2647058823529,230.47577191408632,0,8
55.41041666666667,-29.533333333333335,-1.8416666666666666,62.85706299344206,0.46552676807144455,68.57962940223587,892.5189393939394,205.1432188359513,0,8
53.17916666666667,-30.996875,6.552083333333333,62.795454267762054,1.0580477172940066,72.88349943615569,860.2941176470588,233.6161959039577,0,8
53.24583333333333,-32.26354166666667,7.965625,62.857440715661525,0.7447460487281954,74.75173370818946,832.1428571428571,174.79554101317413,0,8
52.36770833333333,-33.041666666666664,10.315625,62.80453435978805,0.4267675208698829,71.84916565520187,864.1098484848485,251.6728698100721,0,8
50.10208333333333,-35.166666666666664,13.063541666666667,62.60279470480054,0.47815982188451506,72.13017141931529,855.2389705882352,231.11687404795217,0,8
49.41354166666667,-34.514583333333334,2.652083333333333,62.77647561450841,1.495320842170572,73.97473226490929,827.2569444444445,165.73867392891222,0,8
41.68958333333333,3.6770833333333335,23.445833333333333,63.745429300477355,7.093088887396679,91.61899050999858,709.2225609756098,241.4176271590892,0,8
32.88645833333333,19.704166666666666,15.657291666666667,66.68717429263744,16.54318696211213,93.87406488488305,701.6369047619048,335.84664469069816,0,8
50.41458333333333,13.645833333333334,35.14895833333333,63.17979679040797,1.938036598232535,74.02196004310136,853.4007352941177,271.5335499528557,4,8
50.192708333333336,13.997916666666667,35.56979166666667,63.093999569574244,0.4099410297827585,70.75441760038922,877.8409090909091,246.09375,4,8
49.75833333333333,14.319791666666667,36.1125,63.130805950484636,0.2587760465204636,68.44582927378474,924.31640625,213.79762721607975,4,8
49.64895833333333,14.347916666666666,36.21458333333333,63.11025334644499,0.3113907741017869,75.27306077948103,839.1544117647059,226.2316353671809,4,8
49.6125,14.290625,36.315625,63.126898627765755,0.3176785164066237,73.86245251001245,841.9642857142857,193.0847211946702,4,8
49.15625,14.307291666666666,36.91875,63.121854843839294,0.33724285010809385,76.59492257409984,826.3392857142857,213.2313323668479,4,8
49.08020833333333,14.239583333333334,36.979166666666664,63.082263806518164,0.2920354627731206,75.28054796411926,815.5381944444445,148.58427893430905,4,8
48.077083333333334,15.002083333333333,37.979166666666664,63.086110238503124,0.2757323136025157,83.92916877462359,769.7368421052631,276.6969105735479,4,8
47.88854166666667,15.047916666666667,38.188541666666666,63.07637054765234,0.2750367283169598,77.56838203463194,817.2743055555555,290.1974581765714,4,8
47.7375,15.13125,38.37291666666667,63.094372435837336,0.2703397760542182,78.44707628200923,797.2972972972973,193.6561712768563,4,8
47.821875,15.1375,38.286458333333336,63.10569250837075,0.27520847666180004,80.4589497192645,784.6283783783783,223.70079669275253,4,8
47.921875,15.151041666666666,38.104166666666664,63.07337896071126,0.22572065000820982,79.3527455641486,774.671052631579,193.9862062785686,4,8
47.96145833333333,15.029166666666667,38.139583333333334,63.09609011850646,0.2522302334092173,77.09323609383559,809.8958333333334,237.18552958902987,4,8
47.671875,15.186458333333333,38.49375,63.13194251900224,0.3053693567867351,81.25660371722313,772.6151315789474,198.25902406952372,0,8
27.792708333333334,-28.085416666666667,17.261458333333334,63.306181134454924,6.327875907831729,93.33977653937953,691.9642857142857,291.46016571946757,0,8
1.3875,-61.27708333333333,4.283333333333333,63.26620797375723,1.6917235652718847,87.54013263417,727.34375,224.07942462811405,0,8
14.041666666666666,-29.447916666666668,32.30104166666667,63.14630898167309,3.086751851230054,90.32176174989714,703.5060975609756,262.36510670961945,0,8
42.532291666666666,-3.386458333333333,39.49375,63.554732799790436,7.3922891412093765,83.08186808162634,749.1987179487179,215.25640692830538,0,8
47.346875,35.427083333333336,16.794791666666665,63.82224853574769,5.75830633444009,103.77117340218507,616.2109375,238.38545746288136,0,8
