ACC_x_mean,ACC_y_mean,ACC_z_mean,net_acc_mean,net_acc_std,HR,IBI,HRV,label,subject
25.0375,-38.53854166666667,12.2125,63.45643407065213,8.140353188712393,96.28422204896412,639.945652173913,180.78244291597196,0,9
30.76875,-25.416666666666668,30.190625,63.27197781660001,5.336348455858584,99.0255258147931,630.6515957446809,135.1791220594396,0,9
35.334375,31.160416666666666,15.545833333333333,63.64056393813835,4.2101658679587075,93.88428452261904,688.953488372093,223.11753855738183,0,9
35.48229166666667,38.28125,26.889583333333334,63.50866538549115,2.81632963631474,93.0799335118994,698.6607142857143,269.61891579801585,1,9
39.21875,16.03125,42.01145833333333,63.19860499235218,2.1717585855641883,90.47088410289697,716.796875,250.25027536550846,1,9
43.371875,11.663541666666667,40.334375,63.111068521912514,1.2732458609647406,77.5173492072759,786.3175675675676,133.3730002843946,1,9
41.46875,26.120833333333334,38.81041666666667,63.24114190629885,1.2515205634369484,75.36696599697098,825.0868055555555,198.11824008296514,1,9
41.46875,26.817708333333332,36.31666666666667,63.30846811073022,1.3894509008916627,91.05057442009449,724.21875,320.56890534941635,1,9
33.545833333333334,25.76875,46.74791666666667,63.17705425603597,0.2802954332249989,80.16172606903741,775.4934210526316,146.98008747740246,1,9
30.094791666666666,25.94375,48.99375,63.08191625514211,0.20404226499433717,82.96715028008346,753.2051282051282,141.1721810554309,1,9
30.36875,26.059375,48.87291666666667,63.2378110244874,0.3723329574722006,79.34973960361972,788.0067567567568,190.54956385340327,1,9
38.588541666666664,23.082291666666666,42.140625,63.21492398555514,1.7336888899550769,90.4548516418695,710.1934523809524,267.27874725603624,1,9
28.669791666666665,24.719791666666666,50.233333333333334,63.10002198023495,0.5512646918977645,83.70846730489613,743.359375,165.17006338844698,1,9
28.14375,26.48125,49.858333333333334,63.176033386940475,0.886973595350991,82.22166029669609,760.4166666666666,130.7772658246797,1,9
38.19166666666667,25.925,35.15208333333333,63.35222267179896,1.678927994128481,83.327453588922,776.3157894736842,283.1789146804446,1,9
30.729166666666668,27.745833333333334,46.42916666666667,63.277022425777155,2.1596912420596746,90.57854573037424,719.140625,262.19743704618804,1,9
36.001041666666666,39.50625,14.816666666666666,63.47101073920346,1.491141870263523,91.2551624404544,689.6802325581396,196.3588045745048,1,9
24.728125,57.64791666666667,1.9447916666666667,63.86199518653813,0.8086433873548073,81.49617111166127,757.2115384615385,86.55207874757437,1,9
18.063541666666666,61.00416666666667,5.951041666666667,63.9057709050177,0.24227058301338592,74.38685868976025,807.2916666666666,25.87745847533828,1,9
22.726041666666667,38.1875,26.934375,63.50660634463572,2.9479004824012764,81.46838163143241,776.3157894736842,210.1029851242198,1,9
20.695833333333333,13.463541666666666,54.99166666666667,63.15549400069074,2.586671450993212,84.28793755978894,770.1480263157895,301.3531385347258,1,9
14.497916666666667,12.6875,59.755208333333336,63.064278942665034,1.209275172049587,83.23392655634959,768.5032894736842,312.26765010813097,1,9
31.338541666666668,16.390625,49.36770833333333,63.40371189332407,4.701899596442004,83.28941246482029,770.1480263157895,232.52365652680285,1,9
40.028125,14.008333333333333,35.76354166666667,63.23668692285949,3.390330911123277,85.80384723551845,743.359375,257.7426818827308,1,9
36.028125,20.304166666666667,41.278125,63.36400553200534,2.7576958268325638,96.25869609135347,669.7443181818181,260.4227227977977,1,9
39.39479166666667,20.848958333333332,43.484375,63.21085051877688,2.051382060833604,87.56856276075486,725.78125,181.25276302049605,1,9
35.6875,19.689583333333335,47.791666666666664,63.26095863876919,1.5003706555160894,84.11335533175415,765.625,271.6793137013624,1,9
32.365625,20.265625,48.94479166666667,63.26215167884847,2.2015994100584573,85.18585575882918,742.1875,262.62683901405205,1,9
30.434375,18.761458333333334,50.80520833333333,63.19482900980471,1.257495429367079,86.69639678301806,737.109375,261.18077002606884,1,9
21.36875,50.921875,7.765625,63.943986357140396,3.43298103080155,87.97868301151236,724.0853658536586,201.10170196010276,1,9
28.557291666666668,33.74791666666667,34.97708333333333,63.473024522567535,2.3850994998547814,82.49528962500142,764.8237179487179,229.4717367357608,1,9
38.344791666666666,19.198958333333334,41.952083333333334,63.256129052563594,2.2036077884732514,81.60501906703352,782.0723684210526,296.6860173742696,1,9
37.46875,15.048958333333333,47.621875,63.136908768969946,1.4956607565779176,79.8713666840233,805.1215277777778,314.75747111863757,1,9
33.37708333333333,15.847916666666666,49.96458333333333,63.07579830742543,1.6930990956390768,85.65758068159573,761.1019736842105,281.7422494077723,1,9
32.5,13.985416666666667,51.723958333333336,63.09054275132503,1.5801762591227606,77.92720528868963,804.4763513513514,239.96516222122975,1,9
36.75625,17.108333333333334,46.62916666666667,63.14899859570805,2.0206788527445165,92.31948068671028,696.0565476190476,300.56278195976,1,9
34.02708333333333,14.492708333333333,50.911458333333336,62.93080709334222,0.26413742738806867,77.29398702644026,786.1842105263158,111.6734841437788,1,9
35.075,15.226041666666667,47.353125,63.097008097674355,1.0392637403547487,81.40136131569014,772.203947368421,233.10466544167602,1,9
30.910416666666666,17.2375,51.69895833333333,63.15279921608291,1.1690421320255202,82.11089652802146,791.8074324324324,315.4590804266239,1,9
44.40833333333333,15.436458333333333,39.1,63.166312505794714,2.2623010601927267,81.70476754723454,754.8076923076923,159.8676595985764,1,9
42.99166666666667,26.992708333333333,22.326041666666665,63.396628893471735,2.961690667522664,87.41884659655477,716.844512195122,221.02610493446247,1,9
45.092708333333334,23.880208333333332,30.828125,63.30583128183612,1.4541093662557363,82.35127554320827,748.3974358974359,179.19519229262113,1,9
46.873958333333334,4.461458333333334,31.820833333333333,63.36909251998288,5.120403290808041,91.88994317044778,687.5,233.05680893395106,0,9
60.97708333333333,7.971875,14.346875,63.15378528588651,0.2269083459864048,90.83269335676181,705.7291666666666,236.49951738335741,5,9
61.284375,8.126041666666667,12.076041666666667,63.00383777607278,0.3633875153392842,86.96790377605616,699.4047619047619,116.95225371659255,5,9
51.06875,14.673958333333333,14.722916666666666,63.41469895383129,2.186111066471207,85.21295922039057,734.375,238.29520634832278,0,9
30.601041666666667,14.223958333333334,49.12291666666667,63.34821022927447,4.2595591416224075,93.81131554454366,688.9880952380952,262.2181086598451,0,9
21.586458333333333,16.126041666666666,53.9125,63.09459459707535,0.7563944941037997,82.30860038836273,783.7171052631579,300.01451611839855,0,9
19.707291666666666,15.85625,55.76354166666667,63.137662029648894,0.7332917312813865,83.39385287436683,756.4102564102565,236.36762596697366,0,9
25.1875,25.728125,42.75625,63.42353379581251,3.65464122973727,84.04284413996614,775.0822368421053,314.75118202770545,0,9
41.369791666666664,3.935416666666667,26.675,65.72298873759445,13.704173685342461,98.0687019038125,653.4090909090909,252.13703260768605,0,9
21.705208333333335,-57.521875,11.751041666666667,62.945951683385765,2.5759059906883945,91.63538869805394,692.5872093023256,256.9712555724398,0,9
36.02291666666667,-50.114583333333336,9.486458333333333,62.52079692288116,0.8171049266688512,89.72538363528525,692.9505813953489,203.83917490558693,0,9
42.99375,-36.478125,13.286458333333334,62.95654954711849,3.1836094485998294,95.37958107541071,675.4261363636364,298.61979623509285,0,9
51.895833333333336,-2.653125,22.871875,63.46320760089834,5.2422988918933155,98.83642980653258,645.0407608695652,181.78501019213755,0,9
18.077083333333334,55.146875,-18.259375,63.788765243311715,3.323478910268425,89.67251523363949,688.2440476190476,150.5832157912985,0,9
18.8125,42.244791666666664,-18.235416666666666,63.97680400923439,4.19856210672297,86.04164077182944,705.7291666666666,77.1277819002573,0,9
34.21666666666667,-49.592708333333334,13.352083333333333,62.42042259472126,1.4267567287657128,94.33832966933674,675.0710227272727,185.00029462578675,0,9
37.60104166666667,-46.48645833333333,15.189583333333333,62.55190437165164,1.3915253548108493,94.3373553648232,691.1337209302326,292.98239055546543,0,9
34.16458333333333,-48.53958333333333,17.70625,62.4566685991042,2.7283170945359956,92.77338795205262,687.1279761904761,191.38194376531516,0,9
41.016666666666666,-27.628125,24.984375,63.47334684189044,6.83593987849586,91.11137763048886,698.2886904761905,251.93373702346764,0,9
31.25,-24.5125,33.35625,64.91393068476641,12.514006275104022,97.91552947257023,650.1358695652174,241.78113309239924,0,9
55.18125,-17.471875,13.927083333333334,62.864677977511654,2.138918211875834,97.1500778816209,641.6666666666666,200.00055486428715,2,9
59.63125,-16.177083333333332,6.36875,62.9126401483684,1.8268030988323247,85.90592358941475,736.328125,193.2381835790968,2,9
61.13229166666667,-12.342708333333333,-2.234375,62.921307301833764,1.4950348139317333,87.04162255071984,737.5,307.2678989069928,2,9
61.0375,-11.402083333333334,-8.094791666666667,62.89396049399071,1.0117765136968084,92.90651718309036,680.2325581395348,214.95701830194307,2,9
61.72291666666667,-10.834375,-5.579166666666667,63.00616018964365,1.2101252649886496,94.77958928033003,667.96875,223.36036540600105,2,9
61.52395833333333,-11.426041666666666,-3.379166666666667,62.980441126000784,3.7077444501586503,99.42303405679603,656.25,261.7107995739502,2,9
60.854166666666664,-12.358333333333333,-5.009375,62.981281844665666,1.3041646890330565,97.77009726837231,661.2215909090909,267.965916106447,2,9
60.422916666666666,-12.772916666666667,-1.571875,63.019745463573855,5.132232136835021,92.36131314626624,688.2267441860465,194.0060472103039,2,9
58.59791666666667,-14.082291666666666,-2.8760416666666666,63.27290224952499,5.227356654057802,103.53582862367399,621.0106382978723,196.84857914501964,2,9
55.69583333333333,-12.298958333333333,11.045833333333333,63.70550649446901,9.388329667722184,94.9041234464862,686.4098837209302,331.7981061714014,2,9
60.192708333333336,-15.215625,8.354166666666666,62.80123243378875,1.151537290136226,86.59047325852282,729.296875,182.21724671391564,2,9
59.95729166666667,-12.809375,11.986458333333333,62.891968546220646,1.8633752657992875,91.3405131384877,716.4634146341464,310.17691209513805,2,9
59.358333333333334,-6.915625,19.16875,62.95196015282823,1.1590605031920564,100.52690916439091,643.6820652173913,250.747580164462,2,9
60.21875,-7.857291666666667,15.982291666666667,62.80491324496861,0.554486812555014,91.2482594322166,692.7083333333334,212.97080646296996,2,9
59.99791666666667,-8.916666666666666,16.638541666666665,62.90000305412744,0.14801168003087523,81.39838334890476,774.671052631579,213.03465133381212,2,9
59.996875,-9.451041666666667,16.886458333333334,63.043120630116256,0.12642342851669172,81.18996346960827,757.8125,175.54061043576826,2,9
59.97083333333333,-9.923958333333333,16.507291666666667,62.991555106008924,0.23144904401357091,76.02939963806013,802.3648648648649,127.49782984264216,2,9
60.00729166666667,-10.003125,15.74375,62.84138936626168,0.26495128714190913,82.32102261583996,756.9901315789474,218.93090974835707,2,9
59.81666666666667,-10.73125,16.93125,63.09488688719815,0.5360336043598312,83.53725311308077,752.0032051282051,215.24148292184472,2,9
59.62708333333333,-11.65,16.457291666666666,62.95523673123409,0.7469670547892101,87.55158553277377,730.859375,235.17491700123645,2,9
59.7875,-11.205208333333333,15.467708333333333,63.031769743295996,1.8597050917056241,105.58785863049889,612.6302083333334,239.80847230854343,2,9
58.869791666666664,-13.828125,17.527083333333334,62.983997052254765,0.5603855710404578,87.28893025258353,733.59375,234.70863006212835,2,9
44.73854166666667,-31.496875,13.201041666666667,65.61789103938908,11.279668311148601,96.06914436736795,687.5,322.08065298530283,0,9
33.784375,6.455208333333333,41.157291666666666,63.59888479012779,5.125668585858105,92.02128221366885,680.9593023255813,159.59951506296417,0,9
30.15625,11.034375,54.325,63.124862639034276,0.4409366580227349,94.7710308225035,679.5058139534884,250.44138862597129,0,9
30.369791666666668,12.50625,53.869791666666664,63.117541540211946,0.4317019646542099,87.32015011558715,731.640625,263.98200392722964,0,9
41.31041666666667,13.30625,42.25416666666667,63.20623773976101,2.3176519982111006,95.29404977776427,684.9563953488372,309.36861164640453,0,9
35.18333333333333,13.911458333333334,47.73020833333333,63.176122078522575,1.4932121259034095,84.33657468727358,762.3355263157895,274.7945331933897,0,9
27.617708333333333,18.061458333333334,47.645833333333336,63.18563953418219,2.11245275838151,91.39970059299982,702.0089285714286,244.24102356374004,0,9
41.11770833333333,2.621875,38.10520833333333,63.43970076211281,6.194183471632886,94.29892847517745,671.875,224.9939437169417,0,9
30.622916666666665,2.7333333333333334,53.11770833333333,63.0206625996973,2.3146368675123603,91.55846221405483,677.5568181818181,164.51608809256032,0,9
26.648958333333333,2.975,56.770833333333336,62.81562379855928,0.4239085568130598,88.27469276877785,708.3333333333334,187.595250196644,6,9
25.959375,3.503125,55.248958333333334,62.904929615034646,2.270746234362206,87.7850985296906,705.7926829268292,178.5288732775458,6,9
46.18020833333333,-1.6385416666666666,26.397916666666667,63.18873249582229,5.397406992072978,90.95194474499115,708.7053571428571,287.31394761993585,0,9
37.76145833333333,28.634375,31.727083333333333,63.51633764660546,3.2954921679587734,85.1205320344013,754.0064102564103,252.26411027380962,0,9
31.982291666666665,39.875,10.95,63.45866688181295,2.0561629109653214,98.64144501546002,657.6388888888889,264.36868679330803,0,9
49.31875,27.021875,-16.475,63.301936069199854,1.6218862139297523,94.61136899761833,682.0494186046511,228.79010593643414,0,9
54.467708333333334,23.591666666666665,-0.790625,63.44015273930654,4.619156172591562,92.75667304749146,674.4186046511628,182.5837371086144,0,9
32.884375,46.030208333333334,-0.6010416666666667,63.62287679285966,1.2923519646752988,84.46073822765108,773.4375,291.2428045451499,0,9
0.5645833333333333,63.0125,9.7875,63.77466460048062,0.12276710826178328,73.86008574399699,828.5714285714286,188.1499152936296,0,9
7.330208333333333,62.2,5.316666666666666,63.822297426002336,0.3546964902976886,84.64832593026722,760.0160256410256,289.12361551651577,0,9
15.717708333333333,60.645833333333336,7.134375,63.924274258470284,1.8762979137673406,82.30822803100774,773.8486842105264,228.96342594898704,0,9
19.715625,60.94375,0.17083333333333334,64.05735266259049,0.24653233833772814,73.95524737601893,834.8214285714286,214.3564828651644,0,9
22.072916666666668,59.7125,0.1375,63.735247019487744,0.4025386501661784,75.82945684066257,808.1597222222222,174.41307827969777,0,9
37.827083333333334,17.133333333333333,43.001041666666666,63.257921025110676,2.1854181707080134,90.17745782376701,701.9817073170732,203.07992288290095,0,9
41.442708333333336,14.089583333333334,38.30625,63.18066775172851,1.7830491054260404,84.00296619698699,739.84375,151.0762007381943,0,9
40.21145833333333,30.407291666666666,23.886458333333334,63.39011361541782,2.4846939766806915,84.09539929310819,778.3717105263158,364.98630400535103,0,9
51.703125,36.7625,0.5354166666666667,63.569526391738194,0.38958011170420387,81.56556797707434,780.4054054054054,210.39023658265506,0,9
52.12291666666667,35.925,3.080208333333333,63.38080433243324,0.2535097114735308,74.41799233676883,833.0357142857143,240.85705483537447,0,9
53.66770833333333,33.68333333333333,3.370833333333333,63.463459844189025,0.44802113604314764,80.28928586081642,800.6756756756756,285.9607420730063,0,9
58.56979166666667,21.890625,-2.622916666666667,63.14247818360867,0.9244090900885789,85.99008705439017,744.3910256410256,241.9287136061061,0,9
60.23645833333333,17.766666666666666,-4.676041666666666,62.979220860013555,0.3966398857496749,95.55982702164371,659.7222222222222,206.55162603753564,0,9
60.334375,17.719791666666666,-4.611458333333333,63.132418496658396,0.4291772315947517,84.89127059625866,764.0224358974359,309.66020545978256,0,9
46.59583333333333,3.3,19.957291666666666,63.21507842387181,3.8894496007881205,94.65165134517157,686.7732558139535,301.2386847064807,0,9
39.165625,-12.260416666666666,38.03333333333333,63.24977541175296,5.338760970126378,92.41377748738529,687.5,219.12170799961078,0,9
31.528125,6.730208333333334,53.903125,62.82307120166531,0.30320475560947296,83.94750490221955,737.109375,153.9900669040968,4,9
30.939583333333335,7.227083333333334,54.170833333333334,62.803398388160275,0.3412978631054402,74.52353806071756,825.4464285714286,129.70798473936392,4,9
30.861458333333335,7.170833333333333,54.369791666666664,62.930590386611364,0.4071775933638889,70.42600758575857,860.7536764705883,56.402360994532636,4,9
30.63125,7.223958333333333,54.66979166666667,63.08490773708634,0.4141245424247844,69.3862824206842,874.0530303030303,60.325957857345706,4,9
30.3875,7.266666666666667,54.85,63.12813407093848,0.35523051898191066,72.56042641677655,846.4285714285714,117.66141916033281,4,9
30.478125,7.101041666666666,54.83541666666667,63.13964890927959,0.3584488986012753,74.97472233075416,810.3298611111111,56.58383082395788,4,9
30.348958333333332,7.08125,54.925,63.15260105315026,0.29584098484149013,71.56481370839077,845.0892857142857,57.72175907392492,4,9
30.729166666666668,6.628125,54.62291666666667,63.032076697137654,0.3291639603958889,77.36692083095743,804.4763513513514,133.9817809313183,4,9
30.154166666666665,7.005208333333333,54.9875,63.103759959594626,0.19327173063386555,72.69149062225739,829.8611111111111,52.49096435850378,4,9
30.103125,6.995833333333334,54.998958333333334,63.08816056811497,0.15355606492924526,77.33284541897584,785.0506756756756,55.73160041414764,4,9
30.079166666666666,6.994791666666667,54.996875,63.074855453751915,0.14471634888580648,72.83624580021177,824.6527777777778,18.487749322186303,4,9
30.04375,6.994791666666667,54.998958333333334,63.05945850926003,0.11413085579751837,71.77163715124061,840.625,44.83937837371495,4,9
30.069791666666667,6.98125,54.99375,63.066112676015976,0.13622384540469915,70.64977492360859,853.8602941176471,35.044276647657824,4,9
29.978125,7.067708333333333,54.99583333333333,63.03590182630027,0.21427617312075928,73.28142621360456,826.3888888888889,42.668390148412485,0,9
27.975,14.905208333333333,53.791666666666664,63.3536231215912,3.997746744611515,93.75066877207756,688.953488372093,252.86674803521464,0,9
27.81875,16.217708333333334,53.780208333333334,63.10431155629826,1.677680841412138,88.10207080026998,704.985119047619,200.11251122653533,0,9
28.260416666666668,-1.196875,38.567708333333336,64.95473906125206,11.427333758055228,96.88073792918613,661.9318181818181,287.34117832574555,0,9
38.86145833333333,-11.690625,40.172916666666666,62.83951675712874,2.4064428237277062,98.51897899098088,637.9076086956521,195.89150288559682,0,9
51.9625,6.320833333333334,34.014583333333334,63.12170702252158,2.619259290260578,87.21685664494188,719.8932926829268,227.51684776214927,3,9
53.4625,9.454166666666667,32.46145833333333,63.36318602847622,1.2321179546009497,92.72307689251907,684.9563953488372,169.19927516766109,3,9
53.969791666666666,10.005208333333334,31.615625,63.345204024386724,0.2636325261059597,86.68982343848504,705.3571428571429,89.69242624781377,3,9
53.99791666666667,10.064583333333333,31.147916666666667,63.14654498170872,0.18625307076719305,88.20688847019332,693.6773255813954,103.81264244851329,3,9
54.00208333333333,9.982291666666667,31.072916666666668,63.101227683199006,0.15364419853874983,84.55512715632767,713.795731707317,40.36878338363692,3,9
53.934375,10.348958333333334,31.623958333333334,63.3760311549554,0.3070831257540334,85.33644661706877,707.5892857142857,97.45596840337191,3,9
52.765625,10.116666666666667,33.35520833333333,63.269204262886305,0.3377009641215092,88.1116211666451,690.7703488372093,87.4627897070139,3,9
53.005208333333336,9.990625,32.959375,63.212403862126784,0.11778357855464947,87.79190801496587,685.3197674418604,27.909225198677163,3,9
52.91875,9.754166666666666,33.157291666666666,63.21402108674455,0.2016507986951717,89.24223029375482,679.8691860465116,87.09648667467263,3,9
53.08645833333333,9.976041666666667,32.596875,63.09163137169931,0.27235245107494493,89.53474392526192,674.7159090909091,79.9212116566961,3,9
53.516666666666666,9.904166666666667,32.08958333333333,63.18331164703973,0.4035830931226933,87.10809491651135,693.8244047619048,81.29982056050758,3,9
52.030208333333334,10.208333333333334,34.13645833333333,63.09742607861498,0.4034091228330829,88.20071670919138,683.1395348837209,64.46862412851547,3,9
50.86770833333333,10.176041666666666,35.94166666666667,63.23237832698357,1.5123374116096309,86.51901306655212,707.3170731707318,130.51786126570954,3,9
37.19479166666667,12.241666666666667,30.877083333333335,64.36484534029404,10.426379652274393,95.89823569606806,671.1647727272727,286.6982786478691,0,9
46.759375,-9.526041666666666,21.026041666666668,63.455487064135454,6.1524144138708134,90.56268704171698,698.6607142857143,209.43244115594075,0,9
62.260416666666664,-4.354166666666667,9.160416666666666,63.08610812698874,0.4950199220415418,85.455900700725,742.7884615384615,262.486293501805,7,9
62.692708333333336,-6.013541666666667,-0.659375,63.196427778785406,1.2934350907925645,85.96980444086672,758.6348684210526,239.85705818567538,7,9
36.9,8.133333333333333,40.11875,63.17106426983995,2.437547746352839,90.0697740626295,724.8475609756098,309.8914565517255,0,9
22.202083333333334,32.0875,35.661458333333336,63.4273253027791,2.2482467099434977,90.1171205614579,745.9935897435897,394.50376891002026,0,9
22.670833333333334,36.62916666666667,30.103125,63.671114066095726,3.2962516968360065,85.6796874239982,778.7828947368421,314.2686436878573,0,9
36.610416666666666,3.027083333333333,38.884375,63.467304822202955,5.362307675392582,91.92995500186422,693.6773255813954,264.0006355399095,0,9
33.13333333333333,9.24375,50.31041666666667,63.14895612233787,2.7105056094841937,98.77236537868833,640.625,169.82681129118956,4,9
19.488541666666666,7.001041666666667,59.23125,62.74907542962269,0.38105038274416686,73.11174051875251,851.1029411764706,198.7063095203114,4,9
20.060416666666665,7.003125,59.04375,62.75162119776646,0.21329647292473278,78.04185486718143,804.6875,189.4798743082155,4,9
20.13125,7.059375,59.01770833333333,62.75630643241545,0.1650847078710291,80.83621854470232,771.3815789473684,95.18191375508836,4,9
20.160416666666666,7.278125,59.00208333333333,62.77721118953087,0.14392219555753388,72.89958591507299,834.8214285714286,120.13750164486771,4,9
20.2875,7.316666666666666,59.00208333333333,62.82324539669718,0.1589166228970308,73.31764389554871,822.9166666666666,34.33439159834599,4,9
20.215625,7.364583333333333,59.0,62.80358583179406,0.14513787173080345,73.33196195724483,825.5208333333334,60.86018446875945,4,9
20.4125,7.4,59.00208333333333,62.87393498649734,0.16945790147675488,76.21374627980644,802.3648648648649,161.43733062321738,4,9
20.136458333333334,7.288541666666666,59.010416666666664,62.77878686981092,0.15465818716234384,74.65694561270061,809.8958333333334,58.52302278957037,4,9
20.454166666666666,7.079166666666667,58.998958333333334,62.84630742176737,0.1676358614464339,75.65392334306128,796.875,36.73629161371325,4,9
20.123958333333334,7.557291666666667,59.00833333333333,62.8047949303103,0.18659339485507906,74.2957993409446,815.1041666666666,98.89173824368312,4,9
20.021875,7.882291666666666,59.00625,62.80817530237333,0.09008432905247125,72.33665680592506,852.6785714285714,217.7135372067806,4,9
20.036458333333332,7.883333333333334,59.003125,62.81011766657142,0.08870575771582638,68.8161911510028,882.1022727272727,139.94518841931918,4,9
21.998958333333334,3.263541666666667,55.661458333333336,63.58163020366499,4.403153299367179,82.72397204663876,754.0064102564103,160.16878561339107,4,9
31.354166666666668,15.969791666666667,37.748958333333334,63.54076396252879,7.642974882740511,95.90579648896014,674.0552325581396,244.33214214368888,0,9
23.682291666666668,13.139583333333333,56.83020833333333,62.97427493544872,0.4969369723769415,80.71522018842883,793.4966216216217,219.77068422752228,0,9
30.215625,13.46875,48.3125,63.349721348688185,4.8534022475882415,89.15201732658583,724.8475609756098,234.06229138842505,0,9
34.046875,-29.425,25.985416666666666,63.87772636926343,9.653023648586714,91.93700446968018,693.6773255813954,284.34351931979506,0,9
